acc.x, acc.y, acc.z, gyro.x, gyro.y, gyro.z, magn.x, magn.y, magn.z, roll, pitch, yaw, roll_var, pitch_var, yaw_var, kf_dt, throttle, command_roll, command_pitch, command_yaw, pid_roll, pid_pitch, pid_yaw, motors_armed, m1_speed, m2_speed, m3_speed, m4_speed
0.833899, 0.412762, 9.150752, -0.021991, -1.948966, 1.787392, 13.110201, 12.715744, 28.880444, 0.000000, -0.692003, -2.101504, 0.000000, 0.000000, 0.000000, 83858205489174, -60.423531, 0.000000, 0.000000, 0.000000, 0.000000, 0.000000, 0.000000, 0, 0, 0, 1100, 1100
0.390030, -0.169890, 9.867402, 0.076664, 0.009010, 0.041233, 12.715580, 28.880444, -70.359543, -0.692003, -2.101504, -60.423531, 0.000000, 0.000000, 0.000000, 19524, 0.000000, 0.000000, 0.000000, 0.000000, 0.000000, 0.000000, 0.000000, 0, 1100, 1100, 1100, 1100
0.390030, -0.169890, 9.867402, 0.076664, 0.009010, 0.041233, 12.715580, 28.880444, -70.359543, -0.692003, -2.101504, -60.423531, 0.000000, 0.000000, 0.000000, 19524, 0.000000, 0.000000, 0.000000, 0.000000, 0.000000, 0.000000, 0.000000, 0, 1100, 1100, 1100, 1100
0.372084, -0.165105, 9.887143, 0.067195, 0.007789, 0.044288, 12.642503, 29.114294, -69.862617, -0.756685, -2.079690, -60.479317, 0.000000, 0.000000, 0.000000, 19980, 0.000000, 0.000000, 0.000000, 0.000000, 0.000000, 0.000000, 0.000000, 0, 1100, 1100, 1100, 1100
0.400798, -0.153739, 9.894321, 0.072693, 0.009010, 0.043524, 13.168664, 28.836596, -69.935692, -0.877654, -2.130861, -60.545448, 0.000000, 0.000000, 0.000000, 20448, 0.000000, 0.000000, 0.000000, 0.000000, 0.000000, 0.000000, 0.000000, 0, 1100, 1100, 1100, 1100
0.395414, -0.172881, 9.882358, 0.069944, 0.011454, 0.043982, 13.197896, 29.406607, -69.906464, -1.018297, -2.231843, -60.615540, 0.000000, 0.000000, 0.000000, 19972, 0.000000, 0.000000, 0.000000, 0.000000, 0.000000, 0.000000, 0.000000, 0, 1100, 1100, 1100, 1100
0.376870, -0.166899, 9.881162, 0.071471, 0.006567, 0.042455, 12.905582, 28.515053, -69.541069, -1.116764, -2.299639, -60.666573, 0.000000, 0.000000, 0.000000, 19524, 0.000000, 0.000000, 0.000000, 0.000000, 0.000000, 0.000000, 0.000000, 0, 1100, 1100, 1100, 1100
0.400798, -0.297308, 9.905089, 0.067042, 0.008858, 0.044899, 13.402514, 28.529671, -69.219521, -1.175935, -2.255815, -60.663563, 0.000000, 0.000000, 0.000000, 19980, 0.000000, 0.000000, 0.000000, 0.000000, 0.000000, 0.000000, 0.000000, 0, 1100, 1100, 1100, 1100
0.377468, -0.166899, 9.891331, 0.068875, 0.012065, 0.042302, 13.314821, 29.172758, -69.453377, -1.180895, -2.140511, -60.625996, 0.000000, 0.000000, 0.000000, 20440, 0.000000, 0.000000, 0.000000, 0.000000, 0.000000, 0.000000, 0.000000, 0, 1100, 1100, 1100, 1100
0.375673, -0.168694, 9.882358, 0.074220, 0.009316, 0.043219, 12.861736, 28.602749, -69.497223, -1.142120, -2.024197, -60.577988, 0.000000, 0.000000, 0.000000, 19980, 0.000000, 0.000000, 0.000000, 0.000000, 0.000000, 0.000000, 0.000000, 0, 1100, 1100, 1100, 1100
0.393021, -0.165105, 9.910473, 0.068570, 0.008858, 0.040470, 13.490208, 29.026600, -69.263374, -1.057798, -1.929999, -60.515831, 0.000000, 0.000000, 0.000000, 19532, 0.000000, 0.000000, 0.000000, 0.000000, 0.000000, 0.000000, 0.000000, 0, 1100, 1100, 1100, 1100
0.398405, -0.165105, 9.867402, 0.071777, 0.008399, 0.043524, 12.861736, 28.953522, -69.687225, -0.982988, -1.957610, -60.475487, 0.000000, 0.000000, 0.000000, 19976, 0.000000, 0.000000, 0.000000, 0.000000, 0.000000, 0.000000, 0.000000, 0, 1100, 1100, 1100, 1100
0.374477, -0.156132, 9.856635, 0.075136, 0.011301, 0.041539, 12.715580, 28.734287, -69.701843, -0.937193, -2.110274, -60.465302, 0.000000, 0.000000, 0.000000, 20440, 0.000000, 0.000000, 0.000000, 0.000000, 0.000000, 0.000000, 0.000000, 0, 1100, 1100, 1100, 1100
0.379262, -0.157328, 9.852448, 0.068722, 0.005651, 0.041692, 12.730196, 29.187372, -69.687225, -0.931750, -2.344520, -60.488708, 0.000000, 0.000000, 0.000000, 19984, 0.000000, 0.000000, 0.000000, 0.000000, 0.000000, 0.000000, 0.000000, 0, 1100, 1100, 1100, 1100
0.378066, -0.153141, 9.870992, 0.072388, 0.007789, 0.041233, 13.212511, 28.778135, -69.497223, -0.903086, -2.496127, -60.492664, 0.000000, 0.000000, 0.000000, 19528, 0.000000, 0.000000, 0.000000, 0.000000, 0.000000, 0.000000, 0.000000, 0, 1100, 1100, 1100, 1100
0.394816, -0.169292, 9.872188, 0.069639, 0.008552, 0.041233, 12.642503, 28.719673, -69.891846, -0.872475, -2.563736, -60.486919, 0.000000, 0.000000, 0.000000, 19968, 0.000000, 0.000000, 0.000000, 0.000000, 0.000000, 0.000000, 0.000000, 0, 1100, 1100, 1100, 1100
0.407378, -0.162114, 9.891929, 0.071013, 0.011148, 0.041844, 12.744811, 28.851213, -69.701843, -0.845773, -2.540031, -60.470390, 0.000000, 0.000000, 0.000000, 20444, 0.000000, 0.000000, 0.000000, 0.000000, 0.000000, 0.000000, 0.000000, 0, 1100, 1100, 1100, 1100
0.392423, -0.171087, 9.875179, 0.071471, 0.010843, 0.042913, 13.431746, 28.953522, -69.731071, -0.803148, -2.382463, -60.416344, 0.000000, 0.000000, 0.000000, 19992, 0.000000, 0.000000, 0.000000, 0.000000, 0.000000, 0.000000, 0.000000, 0, 1100, 1100, 1100, 1100
0.387039, -0.180658, 9.860823, 0.075442, 0.005192, 0.043066, 13.110201, 28.690443, -69.891846, -0.782959, -2.173299, -60.345966, 0.000000, 0.000000, 0.000000, 19516, 0.000000, 0.000000, 0.000000, 0.000000, 0.000000, 0.000000, 0.000000, 0, 1100, 1100, 1100, 1100
0.371486, -0.155533, 9.875179, 0.075747, 0.004276, 0.041692, 13.139433, 28.602749, -69.701843, -0.799140, -1.978677, -60.273628, 0.000000, 0.000000, 0.000000, 19976, 0.000000, 0.000000, 0.000000, 0.000000, 0.000000, 0.000000, 0.000000, 0, 1100, 1100, 1100, 1100
0.385244, -0.169890, 9.856635, 0.076511, 0.007941, 0.044593, 13.548671, 28.251972, -69.628761, -0.833396, -1.818428, -60.185093, 0.000000, 0.000000, 0.000000, 20440, 0.000000, 0.000000, 0.000000, 0.000000, 0.000000, 0.000000, 0.000000, 0, 1100, 1100, 1100, 1100
0.385244, -0.168694, 9.879367, 0.065973, 0.010537, 0.043982, 13.285589, 28.719673, -69.979538, -0.914587, -1.802882, -60.118896, 0.000000, 0.000000, 0.000000, 19984, 0.000000, 0.000000, 0.000000, 0.000000, 0.000000, 0.000000, 0.000000, 0, 1100, 1100, 1100, 1100
0.394218, -0.193819, 9.867402, 0.072540, 0.009316, 0.042761, 12.598655, 28.675825, -69.394913, -1.072740, -2.001856, -60.110363, 0.000000, 0.000000, 0.000000, 19524, 0.000000, 0.000000, 0.000000, 0.000000, 0.000000, 0.000000, 0.000000, 0, 1100, 1100, 1100, 1100
0.381057, -0.154337, 9.899108, 0.071166, 0.012828, 0.042150, 12.905582, 28.281202, -69.745689, -1.216495, -2.278766, -60.115650, 0.000000, 0.000000, 0.000000, 19976, 0.000000, 0.000000, 0.000000, 0.000000, 0.000000, 0.000000, 0.000000, 0, 1100, 1100, 1100, 1100
0.376870, -0.156730, 9.895518, 0.069944, 0.009774, 0.041844, 13.212511, 28.558901, -69.643379, -1.259470, -2.482835, -60.097973, 0.000000, 0.000000, 0.000000, 20440, 0.000000, 0.000000, 0.000000, 0.000000, 0.000000, 0.000000, 0.000000, 0, 1100, 1100, 1100, 1100
0.368495, -0.155533, 9.893724, 0.072693, 0.005651, 0.042302, 13.095586, 28.441978, -69.555687, -1.170871, -2.521344, -60.044834, 0.000000, 0.000000, 0.000000, 19984, 0.000000, 0.000000, 0.000000, 0.000000, 0.000000, 0.000000, 0.000000, 0, 1100, 1100, 1100, 1100
0.368495, -0.184846, 9.853046, 0.071319, 0.008858, 0.044593, 13.051740, 28.675825, -70.125694, -1.007201, -2.417375, -59.968349, 0.000000, 0.000000, 0.000000, 19524, 0.000000, 0.000000, 0.000000, 0.000000, 0.000000, 0.000000, 0.000000, 0, 1100, 1100, 1100, 1100
0.364307, -0.163310, 9.901501, 0.066737, 0.005040, 0.043066, 13.329436, 28.193510, -69.643379, -0.792962, -2.180204, -59.857620, 0.000000, 0.000000, 0.000000, 19976, 0.000000, 0.000000, 0.000000, 0.000000, 0.000000, 0.000000, 0.000000, 0, 1100, 1100, 1100, 1100
0.383450, -0.159123, 9.881759, 0.077122, 0.007178, 0.041997, 12.847121, 28.368898, -70.242622, -0.640472, -1.984639, -59.765686, 0.000000, 0.000000, 0.000000, 20440, 0.000000, 0.000000, 0.000000, 0.000000, 0.000000, 0.000000, 0.000000, 0, 1100, 1100, 1100, 1100
0.400200, -0.173480, 9.888339, 0.073609, 0.009468, 0.040623, 13.037125, 28.719673, -71.002632, -0.626551, -1.952220, -59.722996, 0.000000, 0.000000, 0.000000, 19984, 0.000000, 0.000000, 0.000000, 0.000000, 0.000000, 0.000000, 0.000000, 0, 1100, 1100, 1100, 1100
0.377468, -0.164507, 9.836296, 0.069639, 0.010232, 0.040928, 12.847121, 29.026600, -69.555687, -0.770018, -2.126008, -59.752792, 0.000000, 0.000000, 0.000000, 19524, 0.000000, 0.000000, 0.000000, 0.000000, 0.000000, 0.000000, 0.000000, 0, 1100, 1100, 1100, 1100
0.384048, -0.166301, 9.881759, 0.069486, 0.010232, 0.041692, 12.817889, 28.821981, -69.877228, -1.011153, -2.419976, -59.830906, 0.000000, 0.000000, 0.000000, 19976, 0.000000, 0.000000, 0.000000, 0.000000, 0.000000, 0.000000, 0.000000, 0, 1100, 1100, 1100, 1100
0.392423, -0.158525, 9.876974, 0.068570, 0.013439, 0.043830, 13.080971, 29.318914, -70.242622, -1.245115, -2.693078, -59.922207, 0.000000, 0.000000, 0.000000, 20440, 0.000000, 0.000000, 0.000000, 0.000000, 0.000000, 0.000000, 0.000000, 0, 1100, 1100, 1100, 1100
0.393021, -0.153141, 9.884750, 0.066584, 0.009927, 0.041997, 12.744811, 29.114294, -69.584915, -1.375679, -2.828619, -60.003498, 0.000000, 0.000000, 0.000000, 19988, 0.000000, 0.000000, 0.000000, 0.000000, 0.000000, 0.000000, 0.000000, 0, 1100, 1100, 1100, 1100
0.385843, -0.150748, 9.869196, 0.067959, 0.010843, 0.045662, 12.847121, 28.924292, -69.716461, -1.345867, -2.752665, -60.051243, 0.000000, 0.000000, 0.000000, 19520, 0.000000, 0.000000, 0.000000, 0.000000, 0.000000, 0.000000, 0.000000, 0, 1100, 1100, 1100, 1100
0.387637, -0.163310, 9.932009, 0.069028, 0.006872, 0.042455, 13.227126, 28.471207, -69.701843, -1.138687, -2.434201, -60.040855, 0.000000, 0.000000, 0.000000, 19976, 0.000000, 0.000000, 0.000000, 0.000000, 0.000000, 0.000000, 0.000000, 0, 1100, 1100, 1100, 1100
0.409173, -0.160917, 9.884750, 0.075595, 0.007941, 0.045204, 12.978661, 29.011986, -70.637238, -0.869310, -2.068503, -60.021626, 0.000000, 0.000000, 0.000000, 20444, 0.000000, 0.000000, 0.000000, 0.000000, 0.000000, 0.000000, 0.000000, 0, 1100, 1100, 1100, 1100
0.378664, -0.161516, 9.893126, 0.071471, 0.006872, 0.042150, 13.402514, 28.705057, -69.804153, -0.637307, -1.786856, -60.008621, 0.000000, 0.000000, 0.000000, 19984, 0.000000, 0.000000, 0.000000, 0.000000, 0.000000, 0.000000, 0.000000, 0, 1100, 1100, 1100, 1100
0.387637, -0.154337, 9.890134, 0.075595, 0.009927, 0.044746, 13.110201, 28.427359, -70.008766, -0.527870, -1.712272, -60.033039, 0.000000, 0.000000, 0.000000, 19516, 0.000000, 0.000000, 0.000000, 0.000000, 0.000000, 0.000000, 0.000000, 0, 1100, 1100, 1100, 1100
0.403191, -0.179462, 9.868000, 0.070250, 0.007789, 0.044288, 13.080971, 28.500439, -69.482605, -0.582329, -1.885075, -60.108765, 0.000000, 0.000000, 0.000000, 19980, 0.000000, 0.000000, 0.000000, 0.000000, 0.000000, 0.000000, 0.000000, 0, 1100, 1100, 1100, 1100
0.384646, -0.148953, 9.901501, 0.073457, 0.010843, 0.041233, 13.270972, 28.646595, -69.847992, -0.751149, -2.208673, -60.211002, 0.000000, 0.000000, 0.000000, 20444, 0.000000, 0.000000, 0.000000, 0.000000, 0.000000, 0.000000, 0.000000, 0, 1100, 1100, 1100, 1100
0.395414, -0.161516, 9.874581, 0.070250, 0.009468, 0.042150, 13.475593, 28.573517, -69.614151, -0.926706, -2.490014, -60.285599, 0.000000, 0.000000, 0.000000, 19984, 0.000000, 0.000000, 0.000000, 0.000000, 0.000000, 0.000000, 0.000000, 0, 1100, 1100, 1100, 1100
0.370888, -0.166301, 9.857233, 0.068111, 0.012523, 0.042761, 12.920199, 28.690443, -70.651855, -1.063214, -2.644886, -60.330994, 0.000000, 0.000000, 0.000000, 19516, 0.000000, 0.000000, 0.000000, 0.000000, 0.000000, 0.000000, 0.000000, 0, 1100, 1100, 1100, 1100
0.403789, -0.169292, 9.873384, 0.074067, 0.009316, 0.042150, 12.949430, 28.778135, -70.198776, -1.125081, -2.634399, -60.340473, 0.000000, 0.000000, 0.000000, 19980, 0.000000, 0.000000, 0.000000, 0.000000, 0.000000, 0.000000, 0.000000, 0, 1100, 1100, 1100, 1100
0.410369, -0.163908, 9.885946, 0.073609, 0.007636, 0.041233, 12.861736, 29.011986, -69.146446, -1.112250, -2.496786, -60.327839, 0.000000, 0.000000, 0.000000, 20444, 0.000000, 0.000000, 0.000000, 0.000000, 0.000000, 0.000000, 0.000000, 0, 1100, 1100, 1100, 1100
0.373879, -0.171685, 9.898509, 0.068570, 0.007483, 0.042913, 13.446361, 28.690443, -69.672607, -1.006380, -2.216410, -60.269127, 0.000000, 0.000000, 0.000000, 19976, 0.000000, 0.000000, 0.000000, 0.000000, 0.000000, 0.000000, 0.000000, 0, 1100, 1100, 1100, 1100
0.398405, -0.167498, 9.872188, 0.066432, 0.012217, 0.042913, 12.978661, 28.719673, -69.336449, -0.893011, -1.964949, -60.211739, 0.000000, 0.000000, 0.000000, 19524, 0.000000, 0.000000, 0.000000, 0.000000, 0.000000, 0.000000, 0.000000, 0, 1100, 1100, 1100, 1100
0.381057, -0.160917, 9.872188, 0.070555, 0.011606, 0.041539, 13.197896, 28.602749, -69.657990, -0.808212, -1.813894, -60.167084, 0.000000, 0.000000, 0.000000, 19988, 0.000000, 0.000000, 0.000000, 0.000000, 0.000000, 0.000000, 0.000000, 0, 1100, 1100, 1100, 1100
0.383450, -0.177069, 9.882956, 0.068264, 0.008858, 0.041997, 12.847121, 28.485823, -69.014908, -0.813309, -1.859220, -60.165936, 0.000000, 0.000000, 0.000000, 20436, 0.000000, 0.000000, 0.000000, 0.000000, 0.000000, 0.000000, 0.000000, 0, 1100, 1100, 1100, 1100
0.396012, -0.163310, 9.881162, 0.071624, 0.012675, 0.041692, 12.774043, 28.251972, -69.204910, -0.894595, -2.073534, -60.201260, 0.000000, 0.000000, 0.000000, 19980, 0.000000, 0.000000, 0.000000, 0.000000, 0.000000, 0.000000, 0.000000, 0, 1100, 1100, 1100, 1100
0.384646, -0.167498, 9.859627, 0.072693, 0.010996, 0.043524, 13.241742, 28.135050, -69.351067, -0.972742, -2.294283, -60.223034, 0.000000, 0.000000, 0.000000, 19520, 0.000000, 0.000000, 0.000000, 0.000000, 0.000000, 0.000000, 0.000000, 0, 1100, 1100, 1100, 1100
0.388834, -0.166899, 9.897313, 0.070555, 0.008094, 0.045509, 12.920199, 28.631979, -69.526451, -1.036456, -2.485152, -60.237179, 0.000000, 0.000000, 0.000000, 19988, 0.000000, 0.000000, 0.000000, 0.000000, 0.000000, 0.000000, 0.000000, 0, 1100, 1100, 1100, 1100
0.383450, -0.153141, 9.894920, 0.070402, 0.005956, 0.042761, 13.095586, 28.398129, -68.897980, -1.031615, -2.542643, -60.217571, 0.000000, 0.000000, 0.000000, 20444, 0.000000, 0.000000, 0.000000, 0.000000, 0.000000, 0.000000, 0.000000, 0, 1100, 1100, 1100, 1100
0.393619, -0.026919, 9.860224, 0.073609, 0.009774, 0.043219, 12.920199, 28.281202, -69.511833, -0.897089, -2.458289, -60.168510, 0.000000, 0.000000, 0.000000, 19972, 0.000000, 0.000000, 0.000000, 0.000000, 0.000000, 0.000000, 0.000000, 0, 1100, 1100, 1100, 1100
0.399601, -0.163908, 9.878769, 0.071319, 0.007941, 0.041997, 12.774043, 28.880444, -69.014908, -0.744420, -2.348275, -60.129433, 0.000000, 0.000000, 0.000000, 19520, 0.000000, 0.000000, 0.000000, 0.000000, 0.000000, 0.000000, 0.000000, 0, 1100, 1100, 1100, 1100
0.396610, -0.173480, 9.879965, 0.067501, 0.008858, 0.043524, 12.861736, 28.865829, -69.818764, -0.640791, -2.266689, -60.110760, 0.000000, 0.000000, 0.000000, 19988, 0.000000, 0.000000, 0.000000, 0.000000, 0.000000, 0.000000, 0.000000, 0, 1100, 1100, 1100, 1100
0.378066, -0.166899, 9.859627, 0.070402, 0.003360, 0.041233, 13.256357, 28.734287, -69.219521, -0.609060, -2.204532, -60.100597, 0.000000, 0.000000, 0.000000, 20448, 0.000000, 0.000000, 0.000000, 0.000000, 0.000000, 0.000000, 0.000000, 0, 1100, 1100, 1100, 1100
0.378664, -0.193819, 9.860224, 0.074678, 0.007025, 0.041997, 12.774043, 28.237358, -70.301079, -0.684194, -2.192364, -60.106853, 0.000000, 0.000000, 0.000000, 19968, 0.000000, 0.000000, 0.000000, 0.000000, 0.000000, 0.000000, 0.000000, 0, 1100, 1100, 1100, 1100
0.371486, -0.173480, 9.883554, 0.074220, 0.004887, 0.040012, 13.022508, 28.368898, -70.169540, -0.829959, -2.201674, -60.118610, 0.000000, 0.000000, 0.000000, 19524, 0.000000, 0.000000, 0.000000, 0.000000, 0.000000, 0.000000, 0.000000, 0, 1100, 1100, 1100, 1100
0.375075, -0.177069, 9.878170, 0.069639, 0.007636, 0.041997, 13.563286, 28.456593, -69.643379, -0.981339, -2.162753, -60.104900, 0.000000, 0.000000, 0.000000, 19984, 0.000000, 0.000000, 0.000000, 0.000000, 0.000000, 0.000000, 0.000000, 0, 1100, 1100, 1100, 1100
0.403191, -0.178863, 9.865608, 0.077274, 0.007330, 0.043066, 13.300204, 28.734287, -69.760307, -1.118897, -2.122724, -60.080051, 0.000000, 0.000000, 0.000000, 20444, 0.000000, 0.000000, 0.000000, 0.000000, 0.000000, 0.000000, 0.000000, 0, 1100, 1100, 1100, 1100
0.376271, -0.180658, 9.888339, 0.067806, 0.009316, 0.040775, 13.256357, 28.193510, -69.847992, -1.193104, -2.062689, -60.034630, 0.000000, 0.000000, 0.000000, 19972, 0.000000, 0.000000, 0.000000, 0.000000, 0.000000, 0.000000, 0.000000, 0, 1100, 1100, 1100, 1100
0.367298, -0.157926, 9.855439, 0.064904, 0.008094, 0.040623, 13.840982, 27.886581, -69.921074, -1.141068, -1.920538, -59.936188, 0.000000, 0.000000, 0.000000, 19524, 0.000000, 0.000000, 0.000000, 0.000000, 0.000000, 0.000000, 0.000000, 0, 1100, 1100, 1100, 1100
0.402592, -0.170489, 9.909277, 0.067348, 0.004887, 0.041539, 13.504823, 28.383514, -69.526451, -1.026786, -1.819466, -59.821938, 0.000000, 0.000000, 0.000000, 19988, 0.000000, 0.000000, 0.000000, 0.000000, 0.000000, 0.000000, 0.000000, 0, 1100, 1100, 1100, 1100
0.407976, -0.166899, 9.861421, 0.068875, 0.008399, 0.038332, 13.183279, 28.091202, -69.482605, -0.912258, -1.854923, -59.720963, 0.000000, 0.000000, 0.000000, 20440, 0.000000, 0.000000, 0.000000, 0.000000, 0.000000, 0.000000, 0.000000, 0, 1100, 1100, 1100, 1100
0.378066, -0.160319, 9.876974, 0.069791, 0.009316, 0.043677, 12.993277, 28.471207, -69.687225, -0.858625, -2.059579, -59.665051, 0.000000, 0.000000, 0.000000, 19972, 0.000000, 0.000000, 0.000000, 0.000000, 0.000000, 0.000000, 0.000000, 0, 1100, 1100, 1100, 1100
0.378664, -0.171685, 9.881759, 0.066126, 0.006872, 0.043219, 13.563286, 28.836596, -69.351067, -0.850019, -2.319725, -59.627415, 0.000000, 0.000000, 0.000000, 19524, 0.000000, 0.000000, 0.000000, 0.000000, 0.000000, 0.000000, 0.000000, 0, 1100, 1100, 1100, 1100
0.393021, -0.168096, 9.842278, 0.074984, 0.006720, 0.042455, 12.905582, 28.427359, -69.804153, -0.885220, -2.585664, -59.604328, 0.000000, 0.000000, 0.000000, 19988, 0.000000, 0.000000, 0.000000, 0.000000, 0.000000, 0.000000, 0.000000, 0, 1100, 1100, 1100, 1100
0.387039, -0.176471, 9.838689, 0.071929, 0.004276, 0.043982, 13.139433, 28.690443, -69.964920, -0.934378, -2.748787, -59.573895, 0.000000, 0.000000, 0.000000, 20440, 0.000000, 0.000000, 0.000000, 0.000000, 0.000000, 0.000000, 0.000000, 0, 1100, 1100, 1100, 1100
0.393619, -0.151944, 9.887143, 0.075442, 0.010843, 0.045051, 13.139433, 28.441978, -70.301079, -0.948101, -2.727834, -59.517334, 0.000000, 0.000000, 0.000000, 19972, 0.000000, 0.000000, 0.000000, 0.000000, 0.000000, 0.000000, 0.000000, 0, 1100, 1100, 1100, 1100
0.377468, -0.166301, 9.868000, 0.070097, 0.008094, 0.043066, 12.847121, 28.310436, -70.140305, -0.941785, -2.563168, -59.449585, 0.000000, 0.000000, 0.000000, 19524, 0.000000, 0.000000, 0.000000, 0.000000, 0.000000, 0.000000, 0.000000, 0, 1100, 1100, 1100, 1100
0.357129, -0.166301, 9.876375, 0.067501, 0.010537, 0.042150, 13.066355, 28.909674, -69.745689, -0.947099, -2.328955, -59.392422, 0.000000, 0.000000, 0.000000, 19988, 0.000000, 0.000000, 0.000000, 0.000000, 0.000000, 0.000000, 0.000000, 0, 1100, 1100, 1100, 1100
0.379262, -0.168694, 9.886545, 0.065363, 0.006872, 0.045662, 13.037125, 28.690443, -69.380295, -0.984812, -2.120124, -59.364056, 0.000000, 0.000000, 0.000000, 20440, 0.000000, 0.000000, 0.000000, 0.000000, 0.000000, 0.000000, 0.000000, 0, 1100, 1100, 1100, 1100
0.383450, -0.169890, 9.862617, 0.069333, 0.005956, 0.043677, 13.387897, 28.734287, -69.204910, -1.042992, -1.995934, -59.363785, 0.000000, 0.000000, 0.000000, 19972, 0.000000, 0.000000, 0.000000, 0.000000, 0.000000, 0.000000, 0.000000, 0, 1100, 1100, 1100, 1100
0.382253, -0.159721, 9.884151, 0.074373, 0.012370, 0.040470, 13.782519, 28.631979, -68.912598, -1.081354, -1.943151, -59.371147, 0.000000, 0.000000, 0.000000, 19524, 0.000000, 0.000000, 0.000000, 0.000000, 0.000000, 0.000000, 0.000000, 0, 1100, 1100, 1100, 1100
0.386441, -0.160319, 9.861421, 0.072235, 0.009316, 0.042455, 13.344051, 28.588131, -69.731071, -1.109156, -2.002303, -59.401760, 0.000000, 0.000000, 0.000000, 19988, 0.000000, 0.000000, 0.000000, 0.000000, 0.000000, 0.000000, 0.000000, 0, 1100, 1100, 1100, 1100
0.351745, -0.165703, 9.882956, 0.074831, 0.010690, 0.039859, 13.227126, 29.143524, -69.731071, -1.140834, -2.178763, -59.473804, 0.000000, 0.000000, 0.000000, 20444, 0.000000, 0.000000, 0.000000, 0.000000, 0.000000, 0.000000, 0.000000, 0, 1100, 1100, 1100, 1100
0.377468, -0.177667, 9.869795, 0.071166, 0.010537, 0.041997, 12.890967, 29.055830, -69.847992, -1.174788, -2.421423, -59.582874, 0.000000, 0.000000, 0.000000, 19968, 0.000000, 0.000000, 0.000000, 0.000000, 0.000000, 0.000000, 0.000000, 0, 1100, 1100, 1100, 1100
0.387039, -0.160319, 9.917652, 0.072235, 0.006109, 0.045051, 13.124818, 28.734287, -69.087990, -1.154723, -2.597167, -59.688457, 0.000000, 0.000000, 0.000000, 19524, 0.000000, 0.000000, 0.000000, 0.000000, 0.000000, 0.000000, 0.000000, 0, 1100, 1100, 1100, 1100
0.387039, -0.190828, 9.890134, 0.065821, 0.008094, 0.042913, 13.124818, 28.851213, -69.234146, -1.080521, -2.646638, -59.778404, 0.000000, 0.000000, 0.000000, 19984, 0.000000, 0.000000, 0.000000, 0.000000, 0.000000, 0.000000, 0.000000, 0, 1100, 1100, 1100, 1100
0.383450, -0.157328, 9.863215, 0.077580, 0.008705, 0.043677, 13.110201, 29.158142, -69.994148, -0.966391, -2.566965, -59.855934, 0.000000, 0.000000, 0.000000, 20444, 0.000000, 0.000000, 0.000000, 0.000000, 0.000000, 0.000000, 0.000000, 0, 1100, 1100, 1100, 1100
0.365504, -0.008375, 9.896714, 0.074831, 0.006720, 0.040317, 13.007893, 28.734287, -68.781059, -0.777333, -2.390341, -59.925716, 0.000000, 0.000000, 0.000000, 19972, 0.000000, 0.000000, 0.000000, 0.000000, 0.000000, 0.000000, 0.000000, 0, 1100, 1100, 1100, 1100
0.387039, -0.160917, 9.859028, 0.075595, 0.009927, 0.042761, 13.037125, 28.880444, -69.204910, -0.609283, -2.211228, -60.004948, 0.000000, 0.000000, 0.000000, 19524, 0.000000, 0.000000, 0.000000, 0.000000, 0.000000, 0.000000, 0.000000, 0, 1100, 1100, 1100, 1100
0.384048, -0.149551, 9.896714, 0.070402, 0.005956, 0.046120, 12.978661, 28.690443, -68.649521, -0.522184, -2.099812, -60.112617, 0.000000, 0.000000, 0.000000, 19984, 0.000000, 0.000000, 0.000000, 0.000000, 0.000000, 0.000000, 0.000000, 0, 1100, 1100, 1100, 1100
0.398405, -0.168096, 9.875179, 0.070250, 0.010079, 0.043219, 13.504823, 28.924292, -69.321838, -0.536720, -2.063934, -60.233322, 0.000000, 0.000000, 0.000000, 20440, 0.000000, 0.000000, 0.000000, 0.000000, 0.000000, 0.000000, 0.000000, 0, 1100, 1100, 1100, 1100
0.389432, -0.172881, 9.899108, 0.067806, 0.008399, 0.042455, 13.373282, 28.705057, -70.038002, -0.646278, -2.094509, -60.352360, 0.000000, 0.000000, 0.000000, 19980, 0.000000, 0.000000, 0.000000, 0.000000, 0.000000, 0.000000, 0.000000, 0, 1100, 1100, 1100, 1100
0.374477, -0.157328, 9.914660, 0.067653, 0.006414, 0.040775, 13.724057, 29.055830, -69.731071, -0.794630, -2.133287, -60.450821, 0.000000, 0.000000, 0.000000, 19528, 0.000000, 0.000000, 0.000000, 0.000000, 0.000000, 0.000000, 0.000000, 0, 1100, 1100, 1100, 1100
0.387039, -0.172881, 9.857831, 0.067195, 0.010996, 0.045204, 13.782519, 28.968138, -69.891846, -0.935491, -2.133625, -60.513927, 0.000000, 0.000000, 0.000000, 19976, 0.000000, 0.000000, 0.000000, 0.000000, 0.000000, 0.000000, 0.000000, 0, 1100, 1100, 1100, 1100
0.393619, -0.168096, 9.875777, 0.068264, 0.006414, 0.043219, 13.314821, 28.631979, -70.023384, -1.041158, -2.106608, -60.547256, 0.000000, 0.000000, 0.000000, 20440, 0.000000, 0.000000, 0.000000, 0.000000, 0.000000, 0.000000, 0.000000, 0, 1100, 1100, 1100, 1100
0.393619, -0.157926, 9.891929, 0.071624, 0.007941, 0.042761, 13.197896, 28.690443, -69.789536, -1.087465, -2.076284, -60.558304, 0.000000, 0.000000, 0.000000, 19980, 0.000000, 0.000000, 0.000000, 0.000000, 0.000000, 0.000000, 0.000000, 0, 1100, 1100, 1100, 1100
0.383450, -0.150150, 9.902697, 0.066737, 0.011759, 0.044440, 13.577901, 28.573517, -70.476463, -1.039088, -2.004684, -60.528603, 0.000000, 0.000000, 0.000000, 19528, 0.000000, 0.000000, 0.000000, 0.000000, 0.000000, 0.000000, 0.000000, 0, 1100, 1100, 1100, 1100
0.379262, -0.166301, 9.864411, 0.071929, 0.007483, 0.043830, 12.993277, 28.807365, -69.438759, -0.962428, -1.988448, -60.500259, 0.000000, 0.000000, 0.000000, 19976, 0.000000, 0.000000, 0.000000, 0.000000, 0.000000, 0.000000, 0.000000, 0, 1100, 1100, 1100, 1100
0.394816, -0.175274, 9.891929, 0.063377, 0.005345, 0.044746, 12.730196, 28.982752, -69.891846, -0.917322, -2.096081, -60.502541, 0.000000, 0.000000, 0.000000, 20440, 0.000000, 0.000000, 0.000000, 0.000000, 0.000000, 0.000000, 0.000000, 0, 1100, 1100, 1100, 1100
0.411566, -0.165105, 9.875777, 0.066279, 0.005803, 0.041386, 13.270972, 28.748903, -69.804153, -0.875735, -2.232656, -60.498703, 0.000000, 0.000000, 0.000000, 19984, 0.000000, 0.000000, 0.000000, 0.000000, 0.000000, 0.000000, 0.000000, 0, 1100, 1100, 1100, 1100
0.390628, -0.163908, 9.903893, 0.072540, 0.008399, 0.040317, 13.168664, 28.763521, -70.154922, -0.835624, -2.342062, -60.479729, 0.000000, 0.000000, 0.000000, 19524, 0.000000, 0.000000, 0.000000, 0.000000, 0.000000, 0.000000, 0.000000, 0, 1100, 1100, 1100, 1100
0.388235, -0.163310, 9.848859, 0.069486, 0.010843, 0.042455, 12.890967, 28.851213, -69.614151, -0.817584, -2.425187, -60.456512, 0.000000, 0.000000, 0.000000, 19976, 0.000000, 0.000000, 0.000000, 0.000000, 0.000000, 0.000000, 0.000000, 0, 1100, 1100, 1100, 1100
0.371486, -0.162114, 9.899706, 0.070402, 0.006261, 0.043524, 13.417130, 28.778135, -69.891846, -0.789554, -2.391088, -60.398270, 0.000000, 0.000000, 0.000000, 20440, 0.000000, 0.000000, 0.000000, 0.000000, 0.000000, 0.000000, 0.000000, 0, 1100, 1100, 1100, 1100
0.381057, -0.170489, 9.881759, 0.069486, 0.013592, 0.040317, 13.504823, 28.792751, -69.511833, -0.760871, -2.249047, -60.306145, 0.000000, 0.000000, 0.000000, 19988, 0.000000, 0.000000, 0.000000, 0.000000, 0.000000, 0.000000, 0.000000, 0, 1100, 1100, 1100, 1100
0.382253, -0.171087, 9.869795, 0.070555, 0.009621, 0.043982, 13.154049, 28.997370, -69.906464, -0.781242, -2.112623, -60.219524, 0.000000, 0.000000, 0.000000, 19520, 0.000000, 0.000000, 0.000000, 0.000000, 0.000000, 0.000000, 0.000000, 0, 1100, 1100, 1100, 1100
0.378066, -0.169890, 9.868599, 0.065515, 0.007941, 0.040623, 13.066355, 29.187372, -69.526451, -0.876569, -2.060460, -60.162655, 0.000000, 0.000000, 0.000000, 19976, 0.000000, 0.000000, 0.000000, 0.000000, 0.000000, 0.000000, 0.000000, 0, 1100, 1100, 1100, 1100
0.409771, -0.160917, 9.890733, 0.069639, 0.010079, 0.042761, 13.431746, 28.515053, -69.541069, -0.982020, -2.052382, -60.102516, 0.000000, 0.000000, 0.000000, 20444, 0.000000, 0.000000, 0.000000, 0.000000, 0.000000, 0.000000, 0.000000, 0, 1100, 1100, 1100, 1100
0.393619, -0.168096, 9.851849, 0.066890, 0.008094, 0.040470, 13.066355, 28.471207, -69.351067, -1.078629, -2.107756, -60.051640, 0.000000, 0.000000, 0.000000, 19984, 0.000000, 0.000000, 0.000000, 0.000000, 0.000000, 0.000000, 0.000000, 0, 1100, 1100, 1100, 1100
0.381057, -0.177667, 9.874581, 0.071013, 0.006109, 0.040012, 13.475593, 28.281202, -69.891846, -1.113905, -2.141892, -59.979649, 0.000000, 0.000000, 0.000000, 19520, 0.000000, 0.000000, 0.000000, 0.000000, 0.000000, 0.000000, 0.000000, 0, 1100, 1100, 1100, 1100
0.384048, -0.174078, 9.901501, 0.073304, 0.010537, 0.042150, 13.051740, 28.807365, -69.701843, -1.120333, -2.206218, -59.914230, 0.000000, 0.000000, 0.000000, 19976, 0.000000, 0.000000, 0.000000, 0.000000, 0.000000, 0.000000, 0.000000, 0, 1100, 1100, 1100, 1100
0.382253, -0.184247, 9.877571, 0.069944, 0.005803, 0.044746, 13.256357, 29.114294, -70.038002, -1.104647, -2.286105, -59.857052, 0.000000, 0.000000, 0.000000, 20444, 0.000000, 0.000000, 0.000000, 0.000000, 0.000000, 0.000000, 0.000000, 0, 1100, 1100, 1100, 1100
0.378066, -0.163310, 9.895518, 0.071471, 0.006720, 0.041081, 13.621748, 28.456593, -70.213387, -1.020280, -2.276623, -59.771198, 0.000000, 0.000000, 0.000000, 19984, 0.000000, 0.000000, 0.000000, 0.000000, 0.000000, 0.000000, 0.000000, 0, 1100, 1100, 1100, 1100
0.390628, -0.187837, 9.894321, 0.073609, 0.007178, 0.041386, 13.095586, 28.573517, -70.184158, -0.935055, -2.249572, -59.687420, 0.000000, 0.000000, 0.000000, 19520, 0.000000, 0.000000, 0.000000, 0.000000, 0.000000, 0.000000, 0.000000, 0, 1100, 1100, 1100, 1100
0.379861, -0.165105, 9.875179, 0.072846, 0.008705, 0.040317, 13.548671, 28.368898, -69.760307, -0.843997, -2.181721, -59.587452, 0.000000, 0.000000, 0.000000, 19976, 0.000000, 0.000000, 0.000000, 0.000000, 0.000000, 0.000000, 0.000000, 0, 1100, 1100, 1100, 1100
0.370888, -0.176471, 9.874581, 0.067959, 0.009927, 0.043524, 13.504823, 28.792751, -69.774918, -0.798776, -2.130226, -59.493839, 0.000000, 0.000000, 0.000000, 20444, 0.000000, 0.000000, 0.000000, 0.000000, 0.000000, 0.000000, 0.000000, 0, 1100, 1100, 1100, 1100
0.381655, -0.163310, 9.886545, 0.072235, 0.009010, 0.043830, 13.402514, 28.778135, -69.087990, -0.825051, -2.145196, -59.428589, 0.000000, 0.000000, 0.000000, 19984, 0.000000, 0.000000, 0.000000, 0.000000, 0.000000, 0.000000, 0.000000, 0, 1100, 1100, 1100, 1100
0.378664, -0.172881, 9.887741, 0.070250, 0.006720, 0.040775, 13.256357, 28.865829, -69.964920, -0.921858, -2.234643, -59.398590, 0.000000, 0.000000, 0.000000, 19524, 0.000000, 0.000000, 0.000000, 0.000000, 0.000000, 0.000000, 0.000000, 0, 1100, 1100, 1100, 1100
0.385843, -0.160917, 9.883554, 0.071319, 0.008552, 0.039859, 14.016369, 28.178894, -69.307220, -0.987569, -2.254606, -59.337337, 0.000000, 0.000000, 0.000000, 19972, 0.000000, 0.000000, 0.000000, 0.000000, 0.000000, 0.000000, 0.000000, 0, 1100, 1100, 1100, 1100
0.389432, -0.172283, 9.872787, 0.076664, 0.011606, 0.045968, 13.563286, 28.865829, -69.277992, -1.044065, -2.263847, -59.275833, 0.000000, 0.000000, 0.000000, 20444, 0.000000, 0.000000, 0.000000, 0.000000, 0.000000, 0.000000, 0.000000, 0, 1100, 1100, 1100, 1100
0.382852, -0.171087, 9.929017, 0.067195, 0.010690, 0.043982, 13.431746, 28.558901, -70.301079, -1.077289, -2.259691, -59.217968, 0.000000, 0.000000, 0.000000, 19984, 0.000000, 0.000000, 0.000000, 0.000000, 0.000000, 0.000000, 0.000000, 0, 1100, 1100, 1100, 1100
0.391825, -0.151944, 9.871590, 0.066584, 0.008858, 0.044440, 13.943291, 28.588131, -69.964920, -1.047936, -2.206500, -59.142712, 0.000000, 0.000000, 0.000000, 19524, 0.000000, 0.000000, 0.000000, 0.000000, 0.000000, 0.000000, 0.000000, 0, 1100, 1100, 1100, 1100
0.390030, -0.172881, 9.856036, 0.065821, 0.008247, 0.045204, 13.548671, 28.690443, -69.877228, -1.000415, -2.170778, -59.073254, 0.000000, 0.000000, 0.000000, 19976, 0.000000, 0.000000, 0.000000, 0.000000, 0.000000, 0.000000, 0.000000, 0, 1100, 1100, 1100, 1100
0.376870, -0.169292, 9.868000, 0.076053, 0.005345, 0.043830, 13.168664, 28.997370, -69.760307, -0.993318, -2.234982, -59.049294, 0.000000, 0.000000, 0.000000, 20440, 0.000000, 0.000000, 0.000000, 0.000000, 0.000000, 0.000000, 0.000000, 0, 1100, 1100, 1100, 1100
0.400200, -0.171685, 9.899108, 0.075136, 0.005345, 0.041233, 13.475593, 28.529671, -69.584915, -0.999091, -2.332679, -59.043823, 0.000000, 0.000000, 0.000000, 19984, 0.000000, 0.000000, 0.000000, 0.000000, 0.000000, 0.000000, 0.000000, 0, 1100, 1100, 1100, 1100
0.388235, -0.175274, 9.890134, 0.074373, 0.008858, 0.042913, 13.475593, 28.573517, -69.877228, -1.005311, -2.415217, -59.043976, 0.000000, 0.000000, 0.000000, 19516, 0.000000, 0.000000, 0.000000, 0.000000, 0.000000, 0.000000, 0.000000, 0, 1100, 1100, 1100, 1100
0.387637, -0.168096, 9.876375, 0.076969, 0.005803, 0.041233, 14.016369, 28.617365, -69.409531, -0.972205, -2.406072, -59.018326, 0.000000, 0.000000, 0.000000, 19984, 0.000000, 0.000000, 0.000000, 0.000000, 0.000000, 0.000000, 0.000000, 0, 1100, 1100, 1100, 1100
0.385244, -0.165703, 9.893126, 0.068417, 0.010537, 0.044135, 13.446361, 28.588131, -69.467995, -0.936992, -2.356194, -58.992542, 0.000000, 0.000000, 0.000000, 20440, 0.000000, 0.000000, 0.000000, 0.000000, 0.000000, 0.000000, 0.000000, 0, 1100, 1100, 1100, 1100
0.387039, -0.160917, 9.869795, 0.066279, 0.009316, 0.042913, 13.329436, 28.792751, -69.336449, -0.933032, -2.326795, -58.990658, 0.000000, 0.000000, 0.000000, 19984, 0.000000, 0.000000, 0.000000, 0.000000, 0.000000, 0.000000, 0.000000, 0, 1100, 1100, 1100, 1100
0.395414, -0.152542, 9.893724, 0.074373, 0.006109, 0.042761, 13.168664, 28.734287, -70.023384, -0.962891, -2.346005, -59.020443, 0.000000, 0.000000, 0.000000, 19516, 0.000000, 0.000000, 0.000000, 0.000000, 0.000000, 0.000000, 0.000000, 0, 1100, 1100, 1100, 1100
0.393619, -0.158525, 9.918249, 0.069944, 0.009316, 0.040775, 13.212511, 28.456593, -69.877228, -1.003464, -2.384239, -59.069389, 0.000000, 0.000000, 0.000000, 19984, 0.000000, 0.000000, 0.000000, 0.000000, 0.000000, 0.000000, 0.000000, 0, 1100, 1100, 1100, 1100
0.393619, -0.183649, 9.919447, 0.070555, 0.006414, 0.043677, 13.066355, 28.427359, -69.628761, -1.054176, -2.430225, -59.136093, 0.000000, 0.000000, 0.000000, 20440, 0.000000, 0.000000, 0.000000, 0.000000, 0.000000, 0.000000, 0.000000, 0, 1100, 1100, 1100, 1100
0.382852, -0.129811, 9.887741, 0.063225, 0.009621, 0.041692, 13.753289, 28.646595, -69.541069, -1.041992, -2.398733, -59.183643, 0.000000, 0.000000, 0.000000, 19980, 0.000000, 0.000000, 0.000000, 0.000000, 0.000000, 0.000000, 0.000000, 0, 1100, 1100, 1100, 1100
0.372084, -0.175872, 9.882358, 0.070708, 0.006567, 0.040928, 13.314821, 28.792751, -69.365677, -1.010388, -2.339259, -59.234974, 0.000000, 0.000000, 0.000000, 19524, 0.000000, 0.000000, 0.000000, 0.000000, 0.000000, 0.000000, 0.000000, 0, 1100, 1100, 1100, 1100
0.397209, -0.175274, 9.899108, 0.074373, 0.012065, 0.044746, 12.540193, 28.851213, -70.739548, -1.022740, -2.358001, -59.334358, 0.000000, 0.000000, 0.000000, 19984, 0.000000, 0.000000, 0.000000, 0.000000, 0.000000, 0.000000, 0.000000, 0, 1100, 1100, 1100, 1100
0.379262, -0.158525, 9.858430, 0.064904, 0.005651, 0.040928, 13.037125, 28.339666, -69.847992, -1.032091, -2.376650, -59.447407, 0.000000, 0.000000, 0.000000, 20440, 0.000000, 0.000000, 0.000000, 0.000000, 0.000000, 0.000000, 0.000000, 0, 1100, 1100, 1100, 1100
0.387637, -0.157328, 9.856635, 0.071319, 0.007636, 0.041692, 13.475593, 28.865829, -69.774918, -1.011671, -2.355864, -59.550781, 0.000000, 0.000000, 0.000000, 19976, 0.000000, 0.000000, 0.000000, 0.000000, 0.000000, 0.000000, 0.000000, 0, 1100, 1100, 1100, 1100
0.386441, -0.191426, 9.863215, 0.074831, 0.008094, 0.042455, 13.051740, 28.836596, -69.877228, -1.000600, -2.334944, -59.659744, 0.000000, 0.000000, 0.000000, 19524, 0.000000, 0.000000, 0.000000, 0.000000, 0.000000, 0.000000, 0.000000, 0, 1100, 1100, 1100, 1100
0.375075, -0.161516, 9.890134, 0.069791, 0.006720, 0.039554, 12.993277, 28.558901, -70.169540, -0.990399, -2.303270, -59.774483, 0.000000, 0.000000, 0.000000, 19992, 0.000000, 0.000000, 0.000000, 0.000000, 0.000000, 0.000000, 0.000000, 0, 1100, 1100, 1100, 1100
0.364307, -0.176471, 9.883554, 0.070860, 0.006109, 0.039095, 12.964046, 28.880444, -69.614151, -0.998995, -2.280072, -59.904900, 0.000000, 0.000000, 0.000000, 20436, 0.000000, 0.000000, 0.000000, 0.000000, 0.000000, 0.000000, 0.000000, 0, 1100, 1100, 1100, 1100
0.395414, -0.159123, 9.865010, 0.073304, 0.008247, 0.041081, 13.037125, 28.968138, -69.833382, -1.013558, -2.274492, -60.041531, 0.000000, 0.000000, 0.000000, 19972, 0.000000, 0.000000, 0.000000, 0.000000, 0.000000, 0.000000, 0.000000, 0, 1100, 1100, 1100, 1100
0.377468, -0.141775, 9.884151, 0.070555, 0.010232, 0.040928, 13.227126, 28.398129, -69.014908, -0.985771, -2.226871, -60.155579, 0.000000, 0.000000, 0.000000, 19524, 0.000000, 0.000000, 0.000000, 0.000000, 0.000000, 0.000000, 0.000000, 0, 1100, 1100, 1100, 1100
0.382852, -0.162712, 9.880563, 0.077274, 0.005345, 0.043066, 13.387897, 28.778135, -69.146446, -0.922770, -2.145944, -60.251202, 0.000000, 0.000000, 0.000000, 19988, 0.000000, 0.000000, 0.000000, 0.000000, 0.000000, 0.000000, 0.000000, 0, 1100, 1100, 1100, 1100
0.379861, -0.171685, 9.884151, 0.065821, 0.010232, 0.042913, 13.285589, 28.807365, -69.365677, -0.858442, -2.070821, -60.337688, 0.000000, 0.000000, 0.000000, 20440, 0.000000, 0.000000, 0.000000, 0.000000, 0.000000, 0.000000, 0.000000, 0, 1100, 1100, 1100, 1100
0.399003, -0.158525, 9.882358, 0.073762, 0.009774, 0.042455, 13.387897, 29.055830, -69.277992, -0.817293, -2.047286, -60.419621, 0.000000, 0.000000, 0.000000, 19972, 0.000000, 0.000000, 0.000000, 0.000000, 0.000000, 0.000000, 0.000000, 0, 1100, 1100, 1100, 1100
0.384048, -0.155533, 9.844671, 0.068264, 0.004887, 0.043371, 13.344051, 29.450453, -69.117218, -0.820204, -2.103933, -60.512123, 0.000000, 0.000000, 0.000000, 19524, 0.000000, 0.000000, 0.000000, 0.000000, 0.000000, 0.000000, 0.000000, 0, 1100, 1100, 1100, 1100
0.409771, -0.160319, 9.885349, 0.074373, 0.011912, 0.041692, 13.007893, 28.938908, -69.497223, -0.859860, -2.228941, -60.614330, 0.000000, 0.000000, 0.000000, 19988, 0.000000, 0.000000, 0.000000, 0.000000, 0.000000, 0.000000, 0.000000, 0, 1100, 1100, 1100, 1100
0.384048, -0.152542, 9.881759, 0.072082, 0.006872, 0.040470, 13.417130, 28.617365, -69.409531, -0.872327, -2.297914, -60.681736, 0.000000, 0.000000, 0.000000, 20444, 0.000000, 0.000000, 0.000000, 0.000000, 0.000000, 0.000000, 0.000000, 0, 1100, 1100, 1100, 1100
0.370289, -0.172283, 9.873384, 0.073915, 0.009316, 0.043371, 12.847121, 29.201988, -69.760307, -0.896426, -2.343520, -60.743031, 0.000000, 0.000000, 0.000000, 19968, 0.000000, 0.000000, 0.000000, 0.000000, 0.000000, 0.000000, 0.000000, 0, 1100, 1100, 1100, 1100
0.401396, -0.174078, 9.870394, 0.079565, 0.007789, 0.041386, 13.460976, 29.216602, -70.140305, -0.897170, -2.306961, -60.768864, 0.000000, 0.000000, 0.000000, 19524, 0.000000, 0.000000, 0.000000, 0.000000, 0.000000, 0.000000, 0.000000, 0, 1100, 1100, 1100, 1100
0.381655, -0.169292, 9.885349, 0.077427, 0.004734, 0.041233, 13.154049, 29.348145, -69.731071, -0.896132, -2.228863, -60.779312, 0.000000, 0.000000, 0.000000, 19988, 0.000000, 0.000000, 0.000000, 0.000000, 0.000000, 0.000000, 0.000000, 0, 1100, 1100, 1100, 1100
0.379861, -0.169292, 9.910473, 0.072388, 0.006109, 0.043066, 13.738672, 28.763521, -69.044136, -0.852974, -2.052659, -60.737198, 0.000000, 0.000000, 0.000000, 20440, 0.000000, 0.000000, 0.000000, 0.000000, 0.000000, 0.000000, 0.000000, 0, 1100, 1100, 1100, 1100
0.388834, -0.160319, 9.878769, 0.076969, 0.008552, 0.044746, 13.840982, 29.391993, -69.584915, -0.801238, -1.875250, -60.666916, 0.000000, 0.000000, 0.000000, 19976, 0.000000, 0.000000, 0.000000, 0.000000, 0.000000, 0.000000, 0.000000, 0, 1100, 1100, 1100, 1100
0.391227, -0.178863, 9.887741, 0.069486, 0.007941, 0.044440, 13.256357, 29.055830, -69.672607, -0.802955, -1.815860, -60.609486, 0.000000, 0.000000, 0.000000, 19520, 0.000000, 0.000000, 0.000000, 0.000000, 0.000000, 0.000000, 0.000000, 0, 1100, 1100, 1100, 1100
0.402592, -0.150748, 9.884151, 0.071166, 0.010996, 0.040470, 13.300204, 29.114294, -69.614151, -0.857458, -1.907522, -60.572372, 0.000000, 0.000000, 0.000000, 19988, 0.000000, 0.000000, 0.000000, 0.000000, 0.000000, 0.000000, 0.000000, 0, 1100, 1100, 1100, 1100
0.367896, -0.159123, 9.880563, 0.076816, 0.011912, 0.041233, 13.548671, 29.318914, -69.365677, -0.933810, -2.087827, -60.542046, 0.000000, 0.000000, 0.000000, 20444, 0.000000, 0.000000, 0.000000, 0.000000, 0.000000, 0.000000, 0.000000, 0, 1100, 1100, 1100, 1100
0.387637, -0.159123, 9.863215, 0.073915, 0.010690, 0.043066, 13.110201, 29.158142, -69.365677, -1.008865, -2.304234, -60.520615, 0.000000, 0.000000, 0.000000, 19972, 0.000000, 0.000000, 0.000000, 0.000000, 0.000000, 0.000000, 0.000000, 0, 1100, 1100, 1100, 1100
0.400798, -0.157926, 9.883554, 0.072693, 0.007636, 0.041386, 12.540193, 28.924292, -68.883362, -1.071956, -2.524506, -60.515629, 0.000000, 0.000000, 0.000000, 19524, 0.000000, 0.000000, 0.000000, 0.000000, 0.000000, 0.000000, 0.000000, 0, 1100, 1100, 1100, 1100
0.386441, -0.170489, 9.851252, 0.066584, 0.008094, 0.042455, 12.759428, 28.807365, -69.131836, -1.084489, -2.646709, -60.497643, 0.000000, 0.000000, 0.000000, 19984, 0.000000, 0.000000, 0.000000, 0.000000, 0.000000, 0.000000, 0.000000, 0, 1100, 1100, 1100, 1100
0.375075, -0.157328, 9.886545, 0.068264, 0.008094, 0.041539, 12.934814, 28.631979, -69.628761, -1.009743, -2.581643, -60.440933, 0.000000, 0.000000, 0.000000, 20444, 0.000000, 0.000000, 0.000000, 0.000000, 0.000000, 0.000000, 0.000000, 0, 1100, 1100, 1100, 1100
0.376271, -0.161516, 9.867402, 0.072388, 0.010232, 0.040317, 13.344051, 29.055830, -69.365677, -0.872470, -2.352602, -60.347439, 0.000000, 0.000000, 0.000000, 19972, 0.000000, 0.000000, 0.000000, 0.000000, 0.000000, 0.000000, 0.000000, 0, 1100, 1100, 1100, 1100
0.378664, -0.177667, 9.881162, 0.071624, 0.009010, 0.043371, 13.139433, 28.836596, -69.628761, -0.749699, -2.081641, -60.246666, 0.000000, 0.000000, 0.000000, 19524, 0.000000, 0.000000, 0.000000, 0.000000, 0.000000, 0.000000, 0.000000, 0, 1100, 1100, 1100, 1100
0.393619, -0.165105, 9.866804, 0.075595, 0.012675, 0.042455, 13.227126, 29.143524, -69.657990, -0.702299, -1.897843, -60.168423, 0.000000, 0.000000, 0.000000, 19980, 0.000000, 0.000000, 0.000000, 0.000000, 0.000000, 0.000000, 0.000000, 0, 1100, 1100, 1100, 1100
0.393619, -0.181855, 9.880563, 0.073915, 0.010385, 0.043830, 13.387897, 28.909674, -69.789536, -0.755100, -1.860048, -60.117645, 0.000000, 0.000000, 0.000000, 20448, 0.000000, 0.000000, 0.000000, 0.000000, 0.000000, 0.000000, 0.000000, 0, 1100, 1100, 1100, 1100
0.384646, -0.149551, 9.897912, 0.076816, 0.008094, 0.040928, 12.934814, 28.661209, -69.321838, -0.895447, -2.002329, -60.112358, 0.000000, 0.000000, 0.000000, 19972, 0.000000, 0.000000, 0.000000, 0.000000, 0.000000, 0.000000, 0.000000, 0, 1100, 1100, 1100, 1100
0.381655, -0.170489, 9.868000, 0.066279, 0.008552, 0.043066, 13.387897, 28.865829, -69.424149, -1.052189, -2.211955, -60.118423, 0.000000, 0.000000, 0.000000, 19524, 0.000000, 0.000000, 0.000000, 0.000000, 0.000000, 0.000000, 0.000000, 0, 1100, 1100, 1100, 1100
0.369691, -0.156132, 9.896116, 0.069180, 0.010843, 0.040317, 13.183279, 28.485823, -69.467995, -1.158535, -2.384318, -60.110298, 0.000000, 0.000000, 0.000000, 19980, 0.000000, 0.000000, 0.000000, 0.000000, 0.000000, 0.000000, 0.000000, 0, 1100, 1100, 1100, 1100
0.385244, -0.141775, 9.847064, 0.074831, 0.007025, 0.042608, 13.241742, 28.909674, -69.204910, -1.168671, -2.464357, -60.081554, 0.000000, 0.000000, 0.000000, 20448, 0.000000, 0.000000, 0.000000, 0.000000, 0.000000, 0.000000, 0.000000, 0, 1100, 1100, 1100, 1100
0.391227, -0.162712, 9.897912, 0.063835, 0.009316, 0.043066, 13.665594, 28.544287, -69.862617, -1.045303, -2.366327, -59.998390, 0.000000, 0.000000, 0.000000, 19972, 0.000000, 0.000000, 0.000000, 0.000000, 0.000000, 0.000000, 0.000000, 0, 1100, 1100, 1100, 1100
0.359522, -0.165703, 9.897313, 0.072846, 0.008705, 0.042913, 13.548671, 28.690443, -69.234146, -0.857262, -2.158952, -59.884586, 0.000000, 0.000000, 0.000000, 19524, 0.000000, 0.000000, 0.000000, 0.000000, 0.000000, 0.000000, 0.000000, 0, 1100, 1100, 1100, 1100
0.394816, -0.164507, 9.883554, 0.076664, 0.007483, 0.041539, 13.797135, 29.289680, -69.497223, -0.685201, -1.963826, -59.768574, 0.000000, 0.000000, 0.000000, 19980, 0.000000, 0.000000, 0.000000, 0.000000, 0.000000, 0.000000, 0.000000, 0, 1100, 1100, 1100, 1100
0.379861, -0.150748, 9.879367, 0.078038, 0.011454, 0.043066, 13.358667, 29.187372, -69.643379, -0.619540, -1.921095, -59.697956, 0.000000, 0.000000, 0.000000, 20444, 0.000000, 0.000000, 0.000000, 0.000000, 0.000000, 0.000000, 0.000000, 0, 1100, 1100, 1100, 1100
0.377468, -0.172283, 9.859028, 0.073762, 0.009010, 0.040623, 13.972523, 28.851213, -69.614151, -0.650673, -1.980021, -59.645599, 0.000000, 0.000000, 0.000000, 19976, 0.000000, 0.000000, 0.000000, 0.000000, 0.000000, 0.000000, 0.000000, 0, 1100, 1100, 1100, 1100
0.399003, -0.182453, 9.870992, 0.074984, 0.011301, 0.042150, 13.782519, 29.085064, -70.008766, -0.776315, -2.134350, -59.613796, 0.000000, 0.000000, 0.000000, 19528, 0.000000, 0.000000, 0.000000, 0.000000, 0.000000, 0.000000, 0.000000, 0, 1100, 1100, 1100, 1100
0.387637, -0.177667, 9.875179, 0.074984, 0.010079, 0.045968, 13.402514, 28.895060, -68.795677, -0.973211, -2.353352, -59.602417, 0.000000, 0.000000, 0.000000, 19980, 0.000000, 0.000000, 0.000000, 0.000000, 0.000000, 0.000000, 0.000000, 0, 1100, 1100, 1100, 1100
0.381057, -0.159721, 9.881162, 0.071624, 0.011148, 0.040317, 13.899444, 28.968138, -68.824905, -1.135145, -2.492065, -59.567448, 0.000000, 0.000000, 0.000000, 20440, 0.000000, 0.000000, 0.000000, 0.000000, 0.000000, 0.000000, 0.000000, 0, 1100, 1100, 1100, 1100
0.390030, -0.158525, 9.869196, 0.071166, 0.005498, 0.045204, 13.168664, 28.368898, -69.248756, -1.210441, -2.513065, -59.512325, 0.000000, 0.000000, 0.000000, 19984, 0.000000, 0.000000, 0.000000, 0.000000, 0.000000, 0.000000, 0.000000, 0, 1100, 1100, 1100, 1100
0.385244, -0.181855, 9.893126, 0.062003, 0.007483, 0.043830, 12.949430, 28.792751, -69.175682, -1.224204, -2.465969, -59.462315, 0.000000, 0.000000, 0.000000, 19528, 0.000000, 0.000000, 0.000000, 0.000000, 0.000000, 0.000000, 0.000000, 0, 1100, 1100, 1100, 1100
0.407378, -0.144766, 9.902099, 0.062308, 0.007025, 0.041233, 13.110201, 28.909674, -69.687225, -1.169131, -2.381283, -59.419621, 0.000000, 0.000000, 0.000000, 19972, 0.000000, 0.000000, 0.000000, 0.000000, 0.000000, 0.000000, 0.000000, 0, 1100, 1100, 1100, 1100
0.383450, -0.166899, 9.883554, 0.073151, 0.009163, 0.042608, 12.964046, 29.085064, -69.541069, -1.088149, -2.321645, -59.406868, 0.000000, 0.000000, 0.000000, 20440, 0.000000, 0.000000, 0.000000, 0.000000, 0.000000, 0.000000, 0.000000, 0, 1100, 1100, 1100, 1100
0.376271, -0.169292, 9.886545, 0.065057, 0.009316, 0.042302, 13.270972, 29.158142, -69.643379, -1.006283, -2.291863, -59.420200, 0.000000, 0.000000, 0.000000, 19992, 0.000000, 0.000000, 0.000000, 0.000000, 0.000000, 0.000000, 0.000000, 0, 1100, 1100, 1100, 1100
0.397807, -0.152542, 9.873982, 0.069791, 0.010385, 0.043524, 13.607132, 28.836596, -70.067230, -0.910303, -2.256693, -59.433357, 0.000000, 0.000000, 0.000000, 19516, 0.000000, 0.000000, 0.000000, 0.000000, 0.000000, 0.000000, 0.000000, 0, 1100, 1100, 1100, 1100
0.367896, -0.160917, 9.891331, 0.070708, 0.009316, 0.042608, 13.329436, 28.851213, -69.351067, -0.838386, -2.245433, -59.462849, 0.000000, 0.000000, 0.000000, 19976, 0.000000, 0.000000, 0.000000, 0.000000, 0.000000, 0.000000, 0.000000, 0, 1100, 1100, 1100, 1100
0.384048, -0.157926, 9.848260, 0.065668, 0.006872, 0.041997, 13.080971, 28.968138, -69.614151, -0.830200, -2.302766, -59.528725, 0.000000, 0.000000, 0.000000, 20440, 0.000000, 0.000000, 0.000000, 0.000000, 0.000000, 0.000000, 0.000000, 0, 1100, 1100, 1100, 1100
0.393021, -0.149551, 9.839885, 0.080634, 0.009621, 0.043830, 13.446361, 28.631979, -69.672607, -0.843845, -2.353023, -59.594837, 0.000000, 0.000000, 0.000000, 19984, 0.000000, 0.000000, 0.000000, 0.000000, 0.000000, 0.000000, 0.000000, 0, 1100, 1100, 1100, 1100
0.373280, -0.157926, 9.877571, 0.074984, 0.012217, 0.042913, 13.168664, 28.617365, -70.359543, -0.874619, -2.377880, -59.660534, 0.000000, 0.000000, 0.000000, 19524, 0.000000, 0.000000, 0.000000, 0.000000, 0.000000, 0.000000, 0.000000, 0, 1100, 1100, 1100, 1100
0.401396, -0.152542, 9.872188, 0.076511, 0.007941, 0.044593, 13.270972, 29.011986, -70.140305, -0.916123, -2.387804, -59.731827, 0.000000, 0.000000, 0.000000, 19976, 0.000000, 0.000000, 0.000000, 0.000000, 0.000000, 0.000000, 0.000000, 0, 1100, 1100, 1100, 1100
0.387039, -0.150150, 9.885349, 0.072998, 0.008858, 0.043371, 13.124818, 28.529671, -69.511833, -0.945186, -2.361346, -59.800083, 0.000000, 0.000000, 0.000000, 20440, 0.000000, 0.000000, 0.000000, 0.000000, 0.000000, 0.000000, 0.000000, 0, 1100, 1100, 1100, 1100
0.372682, -0.163310, 9.872787, 0.066126, 0.010996, 0.040775, 13.490208, 28.705057, -69.204910, -0.941880, -2.270829, -59.847267, 0.000000, 0.000000, 0.000000, 19984, 0.000000, 0.000000, 0.000000, 0.000000, 0.000000, 0.000000, 0.000000, 0, 1100, 1100, 1100, 1100
0.386441, -0.168096, 9.867402, 0.071013, 0.006872, 0.044288, 13.840982, 28.500439, -69.277992, -0.890929, -2.105313, -59.854355, 0.000000, 0.000000, 0.000000, 19524, 0.000000, 0.000000, 0.000000, 0.000000, 0.000000, 0.000000, 0.000000, 0, 1100, 1100, 1100, 1100
0.384646, -0.187837, 9.835697, 0.070708, 0.011301, 0.041386, 13.636364, 28.485823, -69.307220, -0.839836, -1.938323, -59.841480, 0.000000, 0.000000, 0.000000, 19976, 0.000000, 0.000000, 0.000000, 0.000000, 0.000000, 0.000000, 0.000000, 0, 1100, 1100, 1100, 1100
0.369691, -0.161516, 9.878769, 0.065515, 0.007789, 0.040317, 13.183279, 29.041216, -69.321838, -0.860735, -1.914051, -59.865448, 0.000000, 0.000000, 0.000000, 20440, 0.000000, 0.000000, 0.000000, 0.000000, 0.000000, 0.000000, 0.000000, 0, 1100, 1100, 1100, 1100
0.383450, -0.152542, 9.885946, 0.076969, 0.006720, 0.041539, 13.095586, 28.778135, -69.014908, -0.942295, -2.044737, -59.929161, 0.000000, 0.000000, 0.000000, 19988, 0.000000, 0.000000, 0.000000, 0.000000, 0.000000, 0.000000, 0.000000, 0, 1100, 1100, 1100, 1100
0.391227, -0.155533, 9.879965, 0.072082, 0.008705, 0.044440, 12.686350, 28.164280, -69.789536, -1.041287, -2.262624, -60.014511, 0.000000, 0.000000, 0.000000, 19520, 0.000000, 0.000000, 0.000000, 0.000000, 0.000000, 0.000000, 0.000000, 0, 1100, 1100, 1100, 1100
0.358923, -0.159123, 9.869795, 0.068264, 0.003818, 0.040317, 12.759428, 28.485823, -69.950310, -1.116259, -2.472273, -60.107140, 0.000000, 0.000000, 0.000000, 19976, 0.000000, 0.000000, 0.000000, 0.000000, 0.000000, 0.000000, 0.000000, 0, 1100, 1100, 1100, 1100
0.385843, -0.176471, 9.894321, 0.066890, 0.008399, 0.045662, 12.964046, 28.851213, -69.541069, -1.133340, -2.585398, -60.186932, 0.000000, 0.000000, 0.000000, 20444, 0.000000, 0.000000, 0.000000, 0.000000, 0.000000, 0.000000, 0.000000, 0, 1100, 1100, 1100, 1100
0.391825, -0.169890, 9.878170, 0.072693, 0.004887, 0.044593, 13.227126, 28.544287, -69.599533, -1.053125, -2.514007, -60.217823, 0.000000, 0.000000, 0.000000, 19984, 0.000000, 0.000000, 0.000000, 0.000000, 0.000000, 0.000000, 0.000000, 0, 1100, 1100, 1100, 1100
0.370888, -0.148355, 9.878170, 0.079412, 0.008094, 0.041997, 13.139433, 28.441978, -69.219521, -0.901412, -2.297145, -60.208775, 0.000000, 0.000000, 0.000000, 19520, 0.000000, 0.000000, 0.000000, 0.000000, 0.000000, 0.000000, 0.000000, 0, 1100, 1100, 1100, 1100
0.381655, -0.160319, 9.883554, 0.071471, 0.010232, 0.042761, 13.227126, 28.295820, -69.219521, -0.728319, -2.013757, -60.173687, 0.000000, 0.000000, 0.000000, 19976, 0.000000, 0.000000, 0.000000, 0.000000, 0.000000, 0.000000, 0.000000, 0, 1100, 1100, 1100, 1100
0.377468, -0.184247, 9.881759, 0.074526, 0.007483, 0.042761, 12.905582, 28.529671, -69.336449, -0.647096, -1.836235, -60.163551, 0.000000, 0.000000, 0.000000, 20444, 0.000000, 0.000000, 0.000000, 0.000000, 0.000000, 0.000000, 0.000000, 0, 1100, 1100, 1100, 1100
0.386441, -0.154337, 9.857831, 0.078649, 0.008247, 0.039554, 12.642503, 28.427359, -69.044136, -0.705218, -1.878677, -60.210384, 0.000000, 0.000000, 0.000000, 19980, 0.000000, 0.000000, 0.000000, 0.000000, 0.000000, 0.000000, 0.000000, 0, 1100, 1100, 1100, 1100
0.383450, -0.160319, 9.862617, 0.074373, 0.008705, 0.043677, 13.110201, 28.441978, -68.897980, -0.845283, -2.058114, -60.282444, 0.000000, 0.000000, 0.000000, 19520, 0.000000, 0.000000, 0.000000, 0.000000, 0.000000, 0.000000, 0.000000, 0, 1100, 1100, 1100, 1100
0.379262, -0.160319, 9.884151, 0.068111, 0.009468, 0.044593, 13.270972, 28.938908, -69.044136, -1.011887, -2.289923, -60.361580, 0.000000, 0.000000, 0.000000, 19980, 0.000000, 0.000000, 0.000000, 0.000000, 0.000000, 0.000000, 0.000000, 0, 1100, 1100, 1100, 1100
0.393021, -0.171685, 9.880563, 0.069028, 0.006261, 0.044593, 12.759428, 28.734287, -69.511833, -1.158335, -2.504535, -60.439854, 0.000000, 0.000000, 0.000000, 20444, 0.000000, 0.000000, 0.000000, 0.000000, 0.000000, 0.000000, 0.000000, 0, 1100, 1100, 1100, 1100
0.374477, -0.166301, 9.899108, 0.072846, 0.009163, 0.044899, 13.417130, 28.529671, -68.781059, -1.176417, -2.519840, -60.456566, 0.000000, 0.000000, 0.000000, 19984, 0.000000, 0.000000, 0.000000, 0.000000, 0.000000, 0.000000, 0.000000, 0, 1100, 1100, 1100, 1100
0.382852, -0.167498, 9.915259, 0.076053, 0.006109, 0.046426, 13.022508, 28.558901, -68.956444, -1.086830, -2.371596, -60.428734, 0.000000, 0.000000, 0.000000, 19516, 0.000000, 0.000000, 0.000000, 0.000000, 0.000000, 0.000000, 0.000000, 0, 1100, 1100, 1100, 1100
0.382253, -0.164507, 9.883554, 0.071166, 0.007483, 0.043982, 13.344051, 28.938908, -69.643379, -0.925881, -2.120938, -60.367783, 0.000000, 0.000000, 0.000000, 19980, 0.000000, 0.000000, 0.000000, 0.000000, 0.000000, 0.000000, 0.000000, 0, 1100, 1100, 1100, 1100
0.373879, -0.145364, 9.876974, 0.069791, 0.010690, 0.041233, 13.460976, 28.222742, -69.321838, -0.725959, -1.830344, -60.274357, 0.000000, 0.000000, 0.000000, 20444, 0.000000, 0.000000, 0.000000, 0.000000, 0.000000, 0.000000, 0.000000, 0, 1100, 1100, 1100, 1100
0.367298, -0.174676, 9.838689, 0.078496, 0.010385, 0.042608, 12.686350, 28.558901, -69.555687, -0.640142, -1.732805, -60.229813, 0.000000, 0.000000, 0.000000, 19980, 0.000000, 0.000000, 0.000000, 0.000000, 0.000000, 0.000000, 0.000000, 0, 1100, 1100, 1100, 1100
0.387039, -0.156132, 9.918848, 0.077274, 0.010385, 0.041997, 12.934814, 28.661209, -69.482605, -0.687107, -1.861341, -60.241844, 0.000000, 0.000000, 0.000000, 19520, 0.000000, 0.000000, 0.000000, 0.000000, 0.000000, 0.000000, 0.000000, 0, 1100, 1100, 1100, 1100
0.395414, -0.168096, 9.871590, 0.078343, 0.007636, 0.043371, 13.051740, 28.938908, -69.570305, -0.842661, -2.166474, -60.297649, 0.000000, 0.000000, 0.000000, 19988, 0.000000, 0.000000, 0.000000, 0.000000, 0.000000, 0.000000, 0.000000, 0, 1100, 1100, 1100, 1100
0.382852, -0.183649, 9.887143, 0.070708, 0.010690, 0.042913, 12.715580, 28.573517, -69.321838, -1.049916, -2.520572, -60.371006, 0.000000, 0.000000, 0.000000, 20436, 0.000000, 0.000000, 0.000000, 0.000000, 0.000000, 0.000000, 0.000000, 0, 1100, 1100, 1100, 1100
0.385843, -0.186042, 9.892527, 0.076358, 0.009774, 0.040928, 13.124818, 28.076586, -69.482605, -1.171821, -2.678483, -60.388210, 0.000000, 0.000000, 0.000000, 19980, 0.000000, 0.000000, 0.000000, 0.000000, 0.000000, 0.000000, 0.000000, 0, 1100, 1100, 1100, 1100
0.369691, -0.169890, 9.877571, 0.072998, 0.007330, 0.040470, 12.642503, 28.675825, -69.351067, -1.204257, -2.646287, -60.372643, 0.000000, 0.000000, 0.000000, 19520, 0.000000, 0.000000, 0.000000, 0.000000, 0.000000, 0.000000, 0.000000, 0, 1100, 1100, 1100, 1100
0.375673, -0.174676, 9.881759, 0.076205, 0.005803, 0.041997, 12.876352, 28.529671, -69.789536, -1.135704, -2.421263, -60.317566, 0.000000, 0.000000, 0.000000, 19988, 0.000000, 0.000000, 0.000000, 0.000000, 0.000000, 0.000000, 0.000000, 0, 1100, 1100, 1100, 1100
0.396012, -0.163310, 9.876974, 0.064752, 0.009316, 0.041997, 12.452499, 28.690443, -69.000290, -1.035371, -2.165639, -60.270370, 0.000000, 0.000000, 0.000000, 20444, 0.000000, 0.000000, 0.000000, 0.000000, 0.000000, 0.000000, 0.000000, 0, 1100, 1100, 1100, 1100
0.372682, -0.167498, 9.874581, 0.075136, 0.009468, 0.042302, 12.642503, 28.734287, -69.672607, -0.954785, -1.989542, -60.252338, 0.000000, 0.000000, 0.000000, 19972, 0.000000, 0.000000, 0.000000, 0.000000, 0.000000, 0.000000, 0.000000, 0, 1100, 1100, 1100, 1100
0.382852, -0.178863, 9.867402, 0.070860, 0.012370, 0.043371, 12.964046, 28.558901, -69.818764, -0.910804, -1.919004, -60.255383, 0.000000, 0.000000, 0.000000, 19524, 0.000000, 0.000000, 0.000000, 0.000000, 0.000000, 0.000000, 0.000000, 0, 1100, 1100, 1100, 1100
0.379861, -0.168096, 9.893724, 0.070860, 0.010996, 0.042761, 12.554808, 28.719673, -70.301079, -0.937086, -2.014651, -60.304493, 0.000000, 0.000000, 0.000000, 19984, 0.000000, 0.000000, 0.000000, 0.000000, 0.000000, 0.000000, 0.000000, 0, 1100, 1100, 1100, 1100
0.398405, -0.184247, 9.859627, 0.071777, 0.006872, 0.042455, 13.110201, 28.719673, -69.351067, -0.997114, -2.196126, -60.367725, 0.000000, 0.000000, 0.000000, 20448, 0.000000, 0.000000, 0.000000, 0.000000, 0.000000, 0.000000, 0.000000, 0, 1100, 1100, 1100, 1100
0.405583, -0.179462, 9.859627, 0.068875, 0.010843, 0.041997, 13.329436, 29.041216, -69.102600, -1.046719, -2.368059, -60.417137, 0.000000, 0.000000, 0.000000, 19968, 0.000000, 0.000000, 0.000000, 0.000000, 0.000000, 0.000000, 0.000000, 0, 1100, 1100, 1100, 1100
0.380459, -0.178863, 9.885946, 0.073762, 0.007483, 0.043371, 13.270972, 28.368898, -69.117218, -1.036994, -2.418361, -60.421131, 0.000000, 0.000000, 0.000000, 19524, 0.000000, 0.000000, 0.000000, 0.000000, 0.000000, 0.000000, 0.000000, 0, 1100, 1100, 1100, 1100
0.381655, -0.167498, 9.869795, 0.069486, 0.007941, 0.043677, 13.504823, 28.836596, -69.146446, -0.962120, -2.329436, -60.376366, 0.000000, 0.000000, 0.000000, 19984, 0.000000, 0.000000, 0.000000, 0.000000, 0.000000, 0.000000, 0.000000, 0, 1100, 1100, 1100, 1100
0.386441, -0.158525, 9.879367, 0.076053, 0.006261, 0.040012, 12.803274, 28.412745, -69.190292, -0.873087, -2.192834, -60.318222, 0.000000, 0.000000, 0.000000, 20444, 0.000000, 0.000000, 0.000000, 0.000000, 0.000000, 0.000000, 0.000000, 0, 1100, 1100, 1100, 1100
0.370289, -0.161516, 9.852448, 0.079565, 0.010690, 0.044288, 13.139433, 28.646595, -69.804153, -0.803223, -2.061162, -60.258465, 0.000000, 0.000000, 0.000000, 19972, 0.000000, 0.000000, 0.000000, 0.000000, 0.000000, 0.000000, 0.000000, 0, 1100, 1100, 1100, 1100
0.385244, -0.175274, 9.850055, 0.074373, 0.009774, 0.046120, 13.139433, 28.588131, -68.868752, -0.787808, -1.995391, -60.210995, 0.000000, 0.000000, 0.000000, 19524, 0.000000, 0.000000, 0.000000, 0.000000, 0.000000, 0.000000, 0.000000, 0, 1100, 1100, 1100, 1100
0.376271, -0.160319, 9.897912, 0.070402, 0.006414, 0.043524, 12.803274, 28.690443, -69.731071, -0.850785, -2.051527, -60.198353, 0.000000, 0.000000, 0.000000, 19988, 0.000000, 0.000000, 0.000000, 0.000000, 0.000000, 0.000000, 0.000000, 0, 1100, 1100, 1100, 1100
0.375075, -0.174676, 9.903893, 0.063377, 0.012217, 0.047189, 12.978661, 28.836596, -69.351067, -0.972906, -2.197849, -60.213509, 0.000000, 0.000000, 0.000000, 20440, 0.000000, 0.000000, 0.000000, 0.000000, 0.000000, 0.000000, 0.000000, 0, 1100, 1100, 1100, 1100
0.375673, -0.141775, 9.887143, 0.069028, 0.011454, 0.041539, 13.095586, 28.354280, -69.424149, -1.061661, -2.313792, -60.218910, 0.000000, 0.000000, 0.000000, 19972, 0.000000, 0.000000, 0.000000, 0.000000, 0.000000, 0.000000, 0.000000, 0, 1100, 1100, 1100, 1100
0.397209, -0.191426, 9.917053, 0.073151, 0.009621, 0.043371, 12.964046, 28.763521, -69.000290, -1.116177, -2.388183, -60.218269, 0.000000, 0.000000, 0.000000, 19524, 0.000000, 0.000000, 0.000000, 0.000000, 0.000000, 0.000000, 0.000000, 0, 1100, 1100, 1100, 1100
0.396012, -0.174078, 9.903295, 0.072693, 0.010232, 0.043524, 12.496346, 28.792751, -69.263374, -1.150196, -2.450866, -60.230854, 0.000000, 0.000000, 0.000000, 19988, 0.000000, 0.000000, 0.000000, 0.000000, 0.000000, 0.000000, 0.000000, 0, 1100, 1100, 1100, 1100
0.378066, -0.162114, 9.854242, 0.076969, 0.006567, 0.040470, 13.066355, 28.778135, -69.204910, -1.115784, -2.421505, -60.226738, 0.000000, 0.000000, 0.000000, 20440, 0.000000, 0.000000, 0.000000, 0.000000, 0.000000, 0.000000, 0.000000, 0, 1100, 1100, 1100, 1100
0.361914, -0.151346, 9.888938, 0.077580, 0.006720, 0.044593, 12.774043, 28.675825, -69.833382, -1.028546, -2.320397, -60.216171, 0.000000, 0.000000, 0.000000, 19972, 0.000000, 0.000000, 0.000000, 0.000000, 0.000000, 0.000000, 0.000000, 0, 1100, 1100, 1100, 1100
0.385843, -0.300897, 9.943973, 0.067195, 0.011301, 0.041539, 13.650979, 28.734287, -68.795677, -0.948364, -2.129876, -60.169540, 0.000000, 0.000000, 0.000000, 19524, 0.000000, 0.000000, 0.000000, 0.000000, 0.000000, 0.000000, 0.000000, 0, 1100, 1100, 1100, 1100
0.379262, -0.144766, 9.888339, 0.074067, 0.007025, 0.043524, 13.300204, 29.055830, -68.766441, -0.903725, -1.968263, -60.126663, 0.000000, 0.000000, 0.000000, 19988, 0.000000, 0.000000, 0.000000, 0.000000, 0.000000, 0.000000, 0.000000, 0, 1100, 1100, 1100, 1100
0.394816, -0.158525, 9.892527, 0.074373, 0.007025, 0.042150, 13.256357, 29.333529, -69.117218, -0.924464, -1.941227, -60.118252, 0.000000, 0.000000, 0.000000, 20440, 0.000000, 0.000000, 0.000000, 0.000000, 0.000000, 0.000000, 0.000000, 0, 1100, 1100, 1100, 1100
0.384048, -0.157328, 9.921241, 0.071624, 0.006872, 0.043066, 12.964046, 28.500439, -68.781059, -0.987101, -2.040392, -60.138588, 0.000000, 0.000000, 0.000000, 19972, 0.000000, 0.000000, 0.000000, 0.000000, 0.000000, 0.000000, 0.000000, 0, 1100, 1100, 1100, 1100
0.387637, -0.169890, 9.876375, 0.072540, 0.010843, 0.041844, 13.183279, 28.836596, -68.839523, -1.057786, -2.205759, -60.171700, 0.000000, 0.000000, 0.000000, 19524, 0.000000, 0.000000, 0.000000, 0.000000, 0.000000, 0.000000, 0.000000, 0, 1100, 1100, 1100, 1100
0.360718, -0.167498, 9.898509, 0.078343, 0.009163, 0.041539, 13.650979, 28.690443, -69.248756, -1.068194, -2.299515, -60.173023, 0.000000, 0.000000, 0.000000, 19988, 0.000000, 0.000000, 0.000000, 0.000000, 0.000000, 0.000000, 0.000000, 0, 1100, 1100, 1100, 1100
0.394218, -0.156132, 9.867402, 0.071013, 0.009163, 0.043830, 13.387897, 28.427359, -69.511833, -1.000242, -2.290869, -60.134995, 0.000000, 0.000000, 0.000000, 20440, 0.000000, 0.000000, 0.000000, 0.000000, 0.000000, 0.000000, 0.000000, 0, 1100, 1100, 1100, 1100
0.378066, -0.163310, 9.862019, 0.070402, 0.012217, 0.041997, 13.154049, 28.997370, -69.482605, -0.914854, -2.250512, -60.093288, 0.000000, 0.000000, 0.000000, 19976, 0.000000, 0.000000, 0.000000, 0.000000, 0.000000, 0.000000, 0.000000, 0, 1100, 1100, 1100, 1100
0.374477, -0.138186, 9.856635, 0.071471, 0.006109, 0.043982, 12.715580, 28.646595, -69.409531, -0.850579, -2.238963, -60.073784, 0.000000, 0.000000, 0.000000, 19520, 0.000000, 0.000000, 0.000000, 0.000000, 0.000000, 0.000000, 0.000000, 0, 1100, 1100, 1100, 1100
0.392423, -0.158525, 9.860823, 0.069333, 0.010232, 0.041844, 12.876352, 28.135050, -69.204910, -0.804605, -2.235286, -60.059479, 0.000000, 0.000000, 0.000000, 19984, 0.000000, 0.000000, 0.000000, 0.000000, 0.000000, 0.000000, 0.000000, 0, 1100, 1100, 1100, 1100
0.382852, -0.165105, 9.871590, 0.070097, 0.007636, 0.042761, 13.022508, 28.588131, -69.131836, -0.798102, -2.250288, -60.055164, 0.000000, 0.000000, 0.000000, 20448, 0.000000, 0.000000, 0.000000, 0.000000, 0.000000, 0.000000, 0.000000, 0, 1100, 1100, 1100, 1100
0.400200, -0.162712, 9.850055, 0.066126, 0.010079, 0.042150, 13.095586, 28.602749, -69.599533, -0.827675, -2.277885, -60.055614, 0.000000, 0.000000, 0.000000, 19972, 0.000000, 0.000000, 0.000000, 0.000000, 0.000000, 0.000000, 0.000000, 0, 1100, 1100, 1100, 1100
0.402592, -0.169292, 9.868000, 0.075595, 0.010537, 0.041692, 13.387897, 28.266588, -68.912598, -0.856456, -2.264799, -60.034126, 0.000000, 0.000000, 0.000000, 19520, 0.000000, 0.000000, 0.000000, 0.000000, 0.000000, 0.000000, 0.000000, 0, 1100, 1100, 1100, 1100
0.357727, -0.164507, 9.862617, 0.070860, 0.009621, 0.044593, 13.519439, 28.573517, -69.745689, -0.875354, -2.191336, -59.987511, 0.000000, 0.000000, 0.000000, 19984, 0.000000, 0.000000, 0.000000, 0.000000, 0.000000, 0.000000, 0.000000, 0, 1100, 1100, 1100, 1100
0.375673, -0.171087, 9.907482, 0.073457, 0.012217, 0.043982, 13.037125, 29.275066, -69.482605, -0.941394, -2.173676, -59.967709, 0.000000, 0.000000, 0.000000, 20440, 0.000000, 0.000000, 0.000000, 0.000000, 0.000000, 0.000000, 0.000000, 0, 1100, 1100, 1100, 1100
0.393619, -0.178863, 9.865608, 0.066126, 0.007025, 0.040928, 13.446361, 29.114294, -68.751831, -1.022865, -2.191077, -59.959553, 0.000000, 0.000000, 0.000000, 19980, 0.000000, 0.000000, 0.000000, 0.000000, 0.000000, 0.000000, 0.000000, 0, 1100, 1100, 1100, 1100
0.377468, -0.175274, 9.863814, 0.071929, 0.010385, 0.042150, 12.715580, 28.938908, -68.561821, -1.127905, -2.280565, -59.986477, 0.000000, 0.000000, 0.000000, 19528, 0.000000, 0.000000, 0.000000, 0.000000, 0.000000, 0.000000, 0.000000, 0, 1100, 1100, 1100, 1100
0.378066, -0.136989, 9.897912, 0.065668, 0.010079, 0.043219, 12.920199, 28.588131, -69.248756, -1.185853, -2.361675, -60.020317, 0.000000, 0.000000, 0.000000, 19976, 0.000000, 0.000000, 0.000000, 0.000000, 0.000000, 0.000000, 0.000000, 0, 1100, 1100, 1100, 1100
0.403789, -0.169890, 9.862019, 0.067348, 0.011606, 0.045662, 13.329436, 28.748903, -69.190292, -1.153610, -2.367741, -60.031982, 0.000000, 0.000000, 0.000000, 20440, 0.000000, 0.000000, 0.000000, 0.000000, 0.000000, 0.000000, 0.000000, 0, 1100, 1100, 1100, 1100
0.379861, -0.160917, 9.866804, 0.067653, 0.004123, 0.043830, 12.788658, 28.924292, -69.584915, -1.075427, -2.351750, -60.049850, 0.000000, 0.000000, 0.000000, 19980, 0.000000, 0.000000, 0.000000, 0.000000, 0.000000, 0.000000, 0.000000, 0, 1100, 1100, 1100, 1100
0.400200, -0.186640, 9.884750, 0.074984, 0.007941, 0.044135, 12.686350, 29.011986, -69.643379, -1.003253, -2.358480, -60.088284, 0.000000, 0.000000, 0.000000, 19528, 0.000000, 0.000000, 0.000000, 0.000000, 0.000000, 0.000000, 0.000000, 0, 1100, 1100, 1100, 1100
0.387637, -0.166301, 9.908678, 0.079107, 0.009621, 0.043371, 12.876352, 29.055830, -69.774918, -0.942768, -2.373832, -60.142605, 0.000000, 0.000000, 0.000000, 19976, 0.000000, 0.000000, 0.000000, 0.000000, 0.000000, 0.000000, 0.000000, 0, 1100, 1100, 1100, 1100
0.383450, -0.166301, 9.861421, 0.066126, 0.007941, 0.043982, 12.700965, 28.515053, -69.614151, -0.898927, -2.375341, -60.203991, 0.000000, 0.000000, 0.000000, 20440, 0.000000, 0.000000, 0.000000, 0.000000, 0.000000, 0.000000, 0.000000, 0, 1100, 1100, 1100, 1100
0.396610, -0.161516, 9.858430, 0.063377, 0.008705, 0.043982, 12.715580, 28.617365, -69.453377, -0.881048, -2.369044, -60.269638, 0.000000, 0.000000, 0.000000, 19988, 0.000000, 0.000000, 0.000000, 0.000000, 0.000000, 0.000000, 0.000000, 0, 1100, 1100, 1100, 1100
0.393619, -0.153141, 9.884151, 0.066126, 0.010079, 0.042608, 13.168664, 28.851213, -69.570305, -0.865613, -2.324754, -60.322041, 0.000000, 0.000000, 0.000000, 19520, 0.000000, 0.000000, 0.000000, 0.000000, 0.000000, 0.000000, 0.000000, 0, 1100, 1100, 1100, 1100
0.363111, -0.163310, 9.884750, 0.073151, 0.006567, 0.042455, 13.460976, 29.187372, -69.628761, -0.848644, -2.226896, -60.357754, 0.000000, 0.000000, 0.000000, 19976, 0.000000, 0.000000, 0.000000, 0.000000, 0.000000, 0.000000, 0.000000, 0, 1100, 1100, 1100, 1100
0.379262, -0.177069, 9.898509, 0.072846, 0.006414, 0.042455, 13.139433, 29.377375, -69.599533, -0.871890, -2.151502, -60.403980, 0.000000, 0.000000, 0.000000, 20440, 0.000000, 0.000000, 0.000000, 0.000000, 0.000000, 0.000000, 0.000000, 0, 1100, 1100, 1100, 1100
0.375673, -0.153739, 9.873982, 0.072388, 0.005956, 0.044746, 12.890967, 29.640457, -70.418007, -0.947241, -2.165049, -60.483223, 0.000000, 0.000000, 0.000000, 19988, 0.000000, 0.000000, 0.000000, 0.000000, 0.000000, 0.000000, 0.000000, 0, 1100, 1100, 1100, 1100
0.379861, -0.152542, 9.900304, 0.064446, 0.011301, 0.043982, 13.080971, 28.515053, -70.344933, -0.999806, -2.170409, -60.549431, 0.000000, 0.000000, 0.000000, 19520, 0.000000, 0.000000, 0.000000, 0.000000, 0.000000, 0.000000, 0.000000, 0, 1100, 1100, 1100, 1100
0.396012, -0.141775, 9.888339, 0.069791, 0.008705, 0.042302, 12.934814, 28.646595, -69.555687, -1.012245, -2.175377, -60.607437, 0.000000, 0.000000, 0.000000, 19976, 0.000000, 0.000000, 0.000000, 0.000000, 0.000000, 0.000000, 0.000000, 0, 1100, 1100, 1100, 1100
0.387637, -0.159123, 9.857831, 0.063988, 0.009010, 0.043524, 12.832504, 28.631979, -69.643379, -0.987924, -2.185336, -60.659760, 0.000000, 0.000000, 0.000000, 20444, 0.000000, 0.000000, 0.000000, 0.000000, 0.000000, 0.000000, 0.000000, 0, 1100, 1100, 1100, 1100
0.384646, -0.173480, 9.917053, 0.076511, 0.010079, 0.044288, 13.285589, 29.070446, -69.774918, -0.930609, -2.173534, -60.692432, 0.000000, 0.000000, 0.000000, 19984, 0.000000, 0.000000, 0.000000, 0.000000, 0.000000, 0.000000, 0.000000, 0, 1100, 1100, 1100, 1100
0.397807, -0.154337, 9.899706, 0.070555, 0.013134, 0.041844, 12.920199, 28.573517, -69.657990, -0.859132, -2.159354, -60.711399, 0.000000, 0.000000, 0.000000, 19524, 0.000000, 0.000000, 0.000000, 0.000000, 0.000000, 0.000000, 0.000000, 0, 1100, 1100, 1100, 1100
0.369093, -0.171685, 9.897912, 0.072998, 0.012370, 0.042302, 12.788658, 28.705057, -69.804153, -0.809570, -2.163568, -60.731277, 0.000000, 0.000000, 0.000000, 19972, 0.000000, 0.000000, 0.000000, 0.000000, 0.000000, 0.000000, 0.000000, 0, 1100, 1100, 1100, 1100
0.385843, -0.163310, 9.906286, 0.069333, 0.007178, 0.039554, 12.686350, 28.588131, -69.906464, -0.799399, -2.196432, -60.756752, 0.000000, 0.000000, 0.000000, 20444, 0.000000, 0.000000, 0.000000, 0.000000, 0.000000, 0.000000, 0.000000, 0, 1100, 1100, 1100, 1100
0.405583, -0.180658, 9.879965, 0.080787, 0.008094, 0.043830, 12.993277, 28.515053, -69.672607, -0.815839, -2.219673, -60.766853, 0.000000, 0.000000, 0.000000, 19984, 0.000000, 0.000000, 0.000000, 0.000000, 0.000000, 0.000000, 0.000000, 0, 1100, 1100, 1100, 1100
0.368495, -0.166301, 9.872188, 0.062003, 0.008705, 0.043371, 13.168664, 28.018124, -69.687225, -0.820155, -2.162476, -60.735298, 0.000000, 0.000000, 0.000000, 19524, 0.000000, 0.000000, 0.000000, 0.000000, 0.000000, 0.000000, 0.000000, 0, 1100, 1100, 1100, 1100
0.385244, -0.163908, 9.880563, 0.076205, 0.009468, 0.042608, 13.241742, 29.011986, -69.555687, -0.837612, -2.090142, -60.687065, 0.000000, 0.000000, 0.000000, 19972, 0.000000, 0.000000, 0.000000, 0.000000, 0.000000, 0.000000, 0.000000, 0, 1100, 1100, 1100, 1100
0.377468, -0.176471, 9.891929, 0.072693, 0.007789, 0.043830, 13.080971, 29.026600, -69.146446, -0.891502, -2.057480, -60.642879, 0.000000, 0.000000, 0.000000, 20444, 0.000000, 0.000000, 0.000000, 0.000000, 0.000000, 0.000000, 0.000000, 0, 1100, 1100, 1100, 1100
0.378066, -0.166301, 9.870394, 0.072235, 0.008858, 0.044746, 13.460976, 28.953522, -69.643379, -0.943314, -2.035276, -60.587124, 0.000000, 0.000000, 0.000000, 19984, 0.000000, 0.000000, 0.000000, 0.000000, 0.000000, 0.000000, 0.000000, 0, 1100, 1100, 1100, 1100
0.415155, -0.162114, 9.865010, 0.070097, 0.009927, 0.040317, 13.241742, 28.763521, -69.818764, -0.981363, -2.049825, -60.524479, 0.000000, 0.000000, 0.000000, 19524, 0.000000, 0.000000, 0.000000, 0.000000, 0.000000, 0.000000, 0.000000, 0, 1100, 1100, 1100, 1100
0.395414, -0.174676, 9.894321, 0.061850, 0.007483, 0.044288, 13.490208, 28.821981, -69.131836, -0.992600, -2.079314, -60.443253, 0.000000, 0.000000, 0.000000, 19976, 0.000000, 0.000000, 0.000000, 0.000000, 0.000000, 0.000000, 0.000000, 0, 1100, 1100, 1100, 1100
0.389432, -0.178265, 9.854840, 0.068417, 0.009163, 0.044135, 13.621748, 29.187372, -69.745689, -0.980052, -2.117512, -60.344536, 0.000000, 0.000000, 0.000000, 20440, 0.000000, 0.000000, 0.000000, 0.000000, 0.000000, 0.000000, 0.000000, 0, 1100, 1100, 1100, 1100
0.388834, -0.169292, 9.885946, 0.076358, 0.011301, 0.043371, 13.694826, 28.938908, -68.824905, -0.938427, -2.137686, -60.226135, 0.000000, 0.000000, 0.000000, 19984, 0.000000, 0.000000, 0.000000, 0.000000, 0.000000, 0.000000, 0.000000, 0, 1100, 1100, 1100, 1100
0.375075, -0.162114, 9.909277, 0.067501, 0.012981, 0.046426, 13.168664, 28.354280, -68.693367, -0.890930, -2.154171, -60.103233, 0.000000, 0.000000, 0.000000, 19524, 0.000000, 0.000000, 0.000000, 0.000000, 0.000000, 0.000000, 0.000000, 0, 1100, 1100, 1100, 1100
0.376271, -0.157926, 9.893724, 0.068264, 0.007483, 0.042150, 13.402514, 28.602749, -69.073372, -0.844360, -2.163792, -59.972504, 0.000000, 0.000000, 0.000000, 19976, 0.000000, 0.000000, 0.000000, 0.000000, 0.000000, 0.000000, 0.000000, 0, 1100, 1100, 1100, 1100
0.378664, -0.184846, 9.870992, 0.075595, 0.008705, 0.042302, 13.870214, 28.588131, -69.438759, -0.797521, -2.125379, -59.813702, 0.000000, 0.000000, 0.000000, 20440, 0.000000, 0.000000, 0.000000, 0.000000, 0.000000, 0.000000, 0.000000, 0, 1100, 1100, 1100, 1100
0.388235, -0.163908, 9.866206, 0.072540, 0.010079, 0.042150, 13.402514, 28.310436, -69.190292, -0.785786, -2.099152, -59.657196, 0.000000, 0.000000, 0.000000, 19984, 0.000000, 0.000000, 0.000000, 0.000000, 0.000000, 0.000000, 0.000000, 0, 1100, 1100, 1100, 1100
0.370289, -0.145364, 9.862617, 0.072998, 0.008247, 0.043830, 13.534054, 28.456593, -69.438759, -0.806865, -2.099789, -59.511547, 0.000000, 0.000000, 0.000000, 19516, 0.000000, 0.000000, 0.000000, 0.000000, 0.000000, 0.000000, 0.000000, 0, 1100, 1100, 1100, 1100
0.357727, -0.169292, 9.858430, 0.071624, 0.011454, 0.043830, 14.060216, 28.208128, -69.394913, -0.825895, -2.059817, -59.340492, 0.000000, 0.000000, 0.000000, 19984, 0.000000, 0.000000, 0.000000, 0.000000, 0.000000, 0.000000, 0.000000, 0, 1100, 1100, 1100, 1100
0.370888, -0.145364, 9.869795, 0.072388, 0.008552, 0.042913, 13.534054, 28.441978, -69.541069, -0.870760, -2.058808, -59.180817, 0.000000, 0.000000, 0.000000, 20440, 0.000000, 0.000000, 0.000000, 0.000000, 0.000000, 0.000000, 0.000000, 0, 1100, 1100, 1100, 1100
0.391825, -0.169890, 9.853643, 0.067195, 0.010232, 0.043066, 13.534054, 28.938908, -69.628761, -0.961447, -2.151792, -59.063038, 0.000000, 0.000000, 0.000000, 19988, 0.000000, 0.000000, 0.000000, 0.000000, 0.000000, 0.000000, 0.000000, 0, 1100, 1100, 1100, 1100
0.387039, -0.171685, 9.879367, 0.072388, 0.008705, 0.041692, 13.577901, 28.500439, -69.570305, -1.057084, -2.278311, -58.966896, 0.000000, 0.000000, 0.000000, 19516, 0.000000, 0.000000, 0.000000, 0.000000, 0.000000, 0.000000, 0.000000, 0, 1100, 1100, 1100, 1100
0.368495, -0.175274, 9.882956, 0.071624, 0.009316, 0.042455, 13.241742, 28.456593, -70.008766, -1.145966, -2.409540, -58.889126, 0.000000, 0.000000, 0.000000, 19980, 0.000000, 0.000000, 0.000000, 0.000000, 0.000000, 0.000000, 0.000000, 0, 1100, 1100, 1100, 1100
0.372682, -0.139980, 9.865608, 0.071013, 0.009010, 0.046120, 13.665594, 28.938908, -69.204910, -1.176978, -2.485528, -58.818333, 0.000000, 0.000000, 0.000000, 20444, 0.000000, 0.000000, 0.000000, 0.000000, 0.000000, 0.000000, 0.000000, 0, 1100, 1100, 1100, 1100
0.394218, -0.172881, 9.873384, 0.066126, 0.010232, 0.044135, 13.592518, 28.339666, -69.087990, -1.129020, -2.460131, -58.738884, 0.000000, 0.000000, 0.000000, 19976, 0.000000, 0.000000, 0.000000, 0.000000, 0.000000, 0.000000, 0.000000, 0, 1100, 1100, 1100, 1100
0.391825, -0.174676, 9.864411, 0.063988, 0.013134, 0.041997, 13.256357, 29.011986, -69.321838, -1.072467, -2.430283, -58.690258, 0.000000, 0.000000, 0.000000, 19524, 0.000000, 0.000000, 0.000000, 0.000000, 0.000000, 0.000000, 0.000000, 0, 1100, 1100, 1100, 1100
0.377468, -0.151346, 9.881759, 0.075442, 0.007025, 0.046120, 13.855597, 28.412745, -69.994148, -0.968342, -2.328964, -58.633118, 0.000000, 0.000000, 0.000000, 19988, 0.000000, 0.000000, 0.000000, 0.000000, 0.000000, 0.000000, 0.000000, 0, 1100, 1100, 1100, 1100
0.397807, -0.157926, 9.878170, 0.073609, 0.007941, 0.043219, 13.534054, 28.821981, -69.365677, -0.883863, -2.260118, -58.603119, 0.000000, 0.000000, 0.000000, 20436, 0.000000, 0.000000, 0.000000, 0.000000, 0.000000, 0.000000, 0.000000, 0, 1100, 1100, 1100, 1100
0.401994, -0.160319, 9.860224, 0.073915, 0.007330, 0.043371, 13.344051, 28.705057, -70.710320, -0.861317, -2.281255, -58.615658, 0.000000, 0.000000, 0.000000, 19976, 0.000000, 0.000000, 0.000000, 0.000000, 0.000000, 0.000000, 0.000000, 0, 1100, 1100, 1100, 1100
0.373280, -0.172881, 9.865010, 0.068111, 0.007789, 0.041081, 13.344051, 28.807365, -70.111076, -0.911871, -2.379479, -58.671299, 0.000000, 0.000000, 0.000000, 19524, 0.000000, 0.000000, 0.000000, 0.000000, 0.000000, 0.000000, 0.000000, 0, 1100, 1100, 1100, 1100
0.392423, -0.156730, 9.876974, 0.068417, 0.009010, 0.041692, 13.110201, 28.222742, -69.760307, -1.000168, -2.504346, -58.755070, 0.000000, 0.000000, 0.000000, 19996, 0.000000, 0.000000, 0.000000, 0.000000, 0.000000, 0.000000, 0.000000, 0, 1100, 1100, 1100, 1100
0.404985, -0.169292, 9.866804, 0.072082, 0.008858, 0.040012, 13.022508, 28.266588, -69.994148, -1.092542, -2.608102, -58.854622, 0.000000, 0.000000, 0.000000, 20432, 0.000000, 0.000000, 0.000000, 0.000000, 0.000000, 0.000000, 0.000000, 0, 1100, 1100, 1100, 1100
0.393021, -0.169890, 9.849456, 0.069333, 0.008552, 0.045051, 13.314821, 28.383514, -69.716461, -1.135901, -2.613131, -58.941174, 0.000000, 0.000000, 0.000000, 19976, 0.000000, 0.000000, 0.000000, 0.000000, 0.000000, 0.000000, 0.000000, 0, 1100, 1100, 1100, 1100
0.393619, -0.138186, 9.891929, 0.072846, 0.008552, 0.043677, 13.285589, 28.237358, -69.657990, -1.099074, -2.506866, -59.006935, 0.000000, 0.000000, 0.000000, 19520, 0.000000, 0.000000, 0.000000, 0.000000, 0.000000, 0.000000, 0.000000, 0, 1100, 1100, 1100, 1100
0.385244, -0.165703, 9.900304, 0.071777, 0.008705, 0.044135, 13.314821, 28.368898, -69.628761, -1.007737, -2.327671, -59.063602, 0.000000, 0.000000, 0.000000, 19988, 0.000000, 0.000000, 0.000000, 0.000000, 0.000000, 0.000000, 0.000000, 0, 1100, 1100, 1100, 1100
0.390628, -0.170489, 9.874581, 0.074678, 0.008247, 0.038943, 13.314821, 28.383514, -69.365677, -0.909996, -2.153725, -59.126839, 0.000000, 0.000000, 0.000000, 20440, 0.000000, 0.000000, 0.000000, 0.000000, 0.000000, 0.000000, 0.000000, 0, 1100, 1100, 1100, 1100
0.392423, -0.155533, 9.867402, 0.073304, 0.010690, 0.038637, 13.475593, 28.544287, -69.541069, -0.843701, -2.057772, -59.204369, 0.000000, 0.000000, 0.000000, 19976, 0.000000, 0.000000, 0.000000, 0.000000, 0.000000, 0.000000, 0.000000, 0, 1100, 1100, 1100, 1100
0.369093, -0.176471, 9.868000, 0.069180, 0.011148, 0.041692, 13.431746, 28.091202, -69.979538, -0.822664, -2.034182, -59.288353, 0.000000, 0.000000, 0.000000, 19520, 0.000000, 0.000000, 0.000000, 0.000000, 0.000000, 0.000000, 0.000000, 0, 1100, 1100, 1100, 1100
0.409173, -0.168694, 9.875179, 0.072388, 0.009010, 0.039859, 13.051740, 28.456593, -69.511833, -0.880890, -2.150501, -59.409657, 0.000000, 0.000000, 0.000000, 19988, 0.000000, 0.000000, 0.000000, 0.000000, 0.000000, 0.000000, 0.000000, 0, 1100, 1100, 1100, 1100
0.377468, -0.150748, 9.862019, 0.070708, 0.010079, 0.046731, 13.168664, 28.529671, -69.731071, -0.978355, -2.340509, -59.553493, 0.000000, 0.000000, 0.000000, 20444, 0.000000, 0.000000, 0.000000, 0.000000, 0.000000, 0.000000, 0.000000, 0, 1100, 1100, 1100, 1100
0.342772, -0.171087, 9.878769, 0.073762, 0.007025, 0.044288, 12.700965, 28.544287, -69.526451, -1.089482, -2.525609, -59.712955, 0.000000, 0.000000, 0.000000, 19972, 0.000000, 0.000000, 0.000000, 0.000000, 0.000000, 0.000000, 0.000000, 0, 1100, 1100, 1100, 1100
0.396012, -0.169890, 9.886545, 0.080481, 0.008399, 0.043371, 12.700965, 28.237358, -69.292603, -1.156732, -2.618216, -59.859882, 0.000000, 0.000000, 0.000000, 19520, 0.000000, 0.000000, 0.000000, 0.000000, 0.000000, 0.000000, 0.000000, 0, 1100, 1100, 1100, 1100
0.408574, -0.174676, 9.921241, 0.072388, 0.009163, 0.046273, 13.197896, 28.441978, -69.731071, -1.131127, -2.545857, -59.966610, 0.000000, 0.000000, 0.000000, 19988, 0.000000, 0.000000, 0.000000, 0.000000, 0.000000, 0.000000, 0.000000, 0, 1100, 1100, 1100, 1100
0.388235, -0.302692, 9.891929, 0.066432, 0.007789, 0.043830, 13.270972, 28.705057, -69.584915, -1.088299, -2.331412, -60.032413, 0.000000, 0.000000, 0.000000, 20444, 0.000000, 0.000000, 0.000000, 0.000000, 0.000000, 0.000000, 0.000000, 0, 1100, 1100, 1100, 1100
0.374477, -0.172283, 9.876974, 0.073304, 0.003971, 0.043219, 13.066355, 28.953522, -69.657990, -1.058557, -2.100435, -60.089382, 0.000000, 0.000000, 0.000000, 19972, 0.000000, 0.000000, 0.000000, 0.000000, 0.000000, 0.000000, 0.000000, 0, 1100, 1100, 1100, 1100
0.372682, -0.166899, 9.881759, 0.065363, 0.010843, 0.042608, 13.534054, 28.982752, -69.701843, -1.029717, -1.898172, -60.135757, 0.000000, 0.000000, 0.000000, 19520, 0.000000, 0.000000, 0.000000, 0.000000, 0.000000, 0.000000, 0.000000, 0, 1100, 1100, 1100, 1100
0.368495, -0.157328, 9.853046, 0.073915, 0.010690, 0.038943, 13.168664, 28.544287, -69.131836, -1.012290, -1.792803, -60.192387, 0.000000, 0.000000, 0.000000, 19988, 0.000000, 0.000000, 0.000000, 0.000000, 0.000000, 0.000000, 0.000000, 0, 1100, 1100, 1100, 1100
0.380459, -0.158525, 9.850055, 0.077274, 0.009621, 0.041692, 12.437883, 28.734287, -69.964920, -1.054037, -1.908761, -60.306759, 0.000000, 0.000000, 0.000000, 20444, 0.000000, 0.000000, 0.000000, 0.000000, 0.000000, 0.000000, 0.000000, 0, 1100, 1100, 1100, 1100
0.385843, -0.154935, 9.870992, 0.077885, 0.010232, 0.045204, 13.270972, 28.705057, -69.891846, -1.077462, -2.107212, -60.422943, 0.000000, 0.000000, 0.000000, 19972, 0.000000, 0.000000, 0.000000, 0.000000, 0.000000, 0.000000, 0.000000, 0, 1100, 1100, 1100, 1100
0.381057, -0.162114, 9.880563, 0.070860, 0.006567, 0.041386, 13.460976, 28.792751, -69.599533, -1.039885, -2.268749, -60.508469, 0.000000, 0.000000, 0.000000, 19524, 0.000000, 0.000000, 0.000000, 0.000000, 0.000000, 0.000000, 0.000000, 0, 1100, 1100, 1100, 1100
0.378664, -0.166301, 9.866804, 0.071929, 0.007025, 0.045662, 13.475593, 28.631979, -69.731071, -0.927124, -2.319288, -60.546471, 0.000000, 0.000000, 0.000000, 19988, 0.000000, 0.000000, 0.000000, 0.000000, 0.000000, 0.000000, 0.000000, 0, 1100, 1100, 1100, 1100
0.385843, -0.145364, 9.879965, 0.078191, 0.010843, 0.041844, 13.519439, 28.529671, -69.964920, -0.748466, -2.234353, -60.528400, 0.000000, 0.000000, 0.000000, 20440, 0.000000, 0.000000, 0.000000, 0.000000, 0.000000, 0.000000, 0.000000, 0, 1100, 1100, 1100, 1100
0.361316, -0.161516, 9.881162, 0.062308, 0.007636, 0.042302, 13.183279, 28.675825, -69.804153, -0.600430, -2.103746, -60.490685, 0.000000, 0.000000, 0.000000, 19972, 0.000000, 0.000000, 0.000000, 0.000000, 0.000000, 0.000000, 0.000000, 0, 1100, 1100, 1100, 1100
0.384048, -0.160917, 9.846465, 0.069791, 0.006720, 0.044746, 13.563286, 28.646595, -70.169540, -0.517015, -1.970012, -60.435345, 0.000000, 0.000000, 0.000000, 19524, 0.000000, 0.000000, 0.000000, 0.000000, 0.000000, 0.000000, 0.000000, 0, 1100, 1100, 1100, 1100
0.393619, -0.159123, 9.862019, 0.076664, 0.012981, 0.044440, 13.519439, 28.441978, -70.491089, -0.520136, -1.883278, -60.368752, 0.000000, 0.000000, 0.000000, 19980, 0.000000, 0.000000, 0.000000, 0.000000, 0.000000, 0.000000, 0.000000, 0, 1100, 1100, 1100, 1100
0.389432, -0.178863, 9.885349, 0.073915, 0.007483, 0.041692, 13.300204, 28.865829, -70.228004, -0.653421, -1.930066, -60.323021, 0.000000, 0.000000, 0.000000, 20448, 0.000000, 0.000000, 0.000000, 0.000000, 0.000000, 0.000000, 0.000000, 0, 1100, 1100, 1100, 1100
0.363709, -0.165703, 9.866206, 0.075136, 0.012370, 0.043982, 13.168664, 28.310436, -69.248756, -0.860716, -2.059136, -60.289124, 0.000000, 0.000000, 0.000000, 19972, 0.000000, 0.000000, 0.000000, 0.000000, 0.000000, 0.000000, 0.000000, 0, 1100, 1100, 1100, 1100
0.363111, -0.181256, 9.853046, 0.073304, 0.007330, 0.043219, 13.110201, 28.441978, -69.921074, -1.079481, -2.200965, -60.254623, 0.000000, 0.000000, 0.000000, 19524, 0.000000, 0.000000, 0.000000, 0.000000, 0.000000, 0.000000, 0.000000, 0, 1100, 1100, 1100, 1100
0.393619, -0.160917, 9.884151, 0.068722, 0.012370, 0.043982, 12.496346, 28.456593, -70.067230, -1.275734, -2.361083, -60.231873, 0.000000, 0.000000, 0.000000, 19980, 0.000000, 0.000000, 0.000000, 0.000000, 0.000000, 0.000000, 0.000000, 0, 1100, 1100, 1100, 1100
0.402592, -0.141177, 9.889537, 0.073915, 0.009774, 0.045968, 12.291727, 28.602749, -69.818764, -1.389525, -2.513510, -60.224796, 0.000000, 0.000000, 0.000000, 20448, 0.000000, 0.000000, 0.000000, 0.000000, 0.000000, 0.000000, 0.000000, 0, 1100, 1100, 1100, 1100
0.384048, -0.160917, 9.906884, 0.070402, 0.010690, 0.044135, 12.817889, 29.187372, -69.351067, -1.370458, -2.572423, -60.214565, 0.000000, 0.000000, 0.000000, 19976, 0.000000, 0.000000, 0.000000, 0.000000, 0.000000, 0.000000, 0.000000, 0, 1100, 1100, 1100, 1100
0.387637, -0.152542, 9.886545, 0.078343, 0.011759, 0.042608, 12.890967, 28.251972, -69.497223, -1.192227, -2.466083, -60.168495, 0.000000, 0.000000, 0.000000, 19520, 0.000000, 0.000000, 0.000000, 0.000000, 0.000000, 0.000000, 0.000000, 0, 1100, 1100, 1100, 1100
0.376271, -0.159123, 9.878769, 0.062614, 0.004123, 0.041081, 13.197896, 29.055830, -70.374161, -0.919215, -2.252905, -60.100407, 0.000000, 0.000000, 0.000000, 19980, 0.000000, 0.000000, 0.000000, 0.000000, 0.000000, 0.000000, 0.000000, 0, 1100, 1100, 1100, 1100
0.355932, -0.172881, 9.885349, 0.072846, 0.005956, 0.046426, 13.197896, 28.646595, -69.365677, -0.650998, -2.016180, -60.028606, 0.000000, 0.000000, 0.000000, 20444, 0.000000, 0.000000, 0.000000, 0.000000, 0.000000, 0.000000, 0.000000, 0, 1100, 1100, 1100, 1100
0.368495, -0.160319, 9.865608, 0.075442, 0.008247, 0.043371, 12.803274, 28.836596, -69.950310, -0.523337, -1.930117, -60.009327, 0.000000, 0.000000, 0.000000, 19980, 0.000000, 0.000000, 0.000000, 0.000000, 0.000000, 0.000000, 0.000000, 0, 1100, 1100, 1100, 1100
0.400200, -0.160319, 9.900902, 0.065515, 0.010537, 0.041844, 12.408652, 28.646595, -69.672607, -0.587154, -2.076781, -60.068687, 0.000000, 0.000000, 0.000000, 19528, 0.000000, 0.000000, 0.000000, 0.000000, 0.000000, 0.000000, 0.000000, 0, 1100, 1100, 1100, 1100
0.366700, -0.155533, 9.885946, 0.069180, 0.008247, 0.043524, 13.183279, 28.807365, -68.401047, -0.769834, -2.321829, -60.162998, 0.000000, 0.000000, 0.000000, 19976, 0.000000, 0.000000, 0.000000, 0.000000, 0.000000, 0.000000, 0.000000, 0, 1100, 1100, 1100, 1100
0.398405, -0.172881, 9.881759, 0.073915, 0.009774, 0.043677, 12.774043, 28.398129, -69.555687, -0.998243, -2.555179, -60.261326, 0.000000, 0.000000, 0.000000, 20440, 0.000000, 0.000000, 0.000000, 0.000000, 0.000000, 0.000000, 0.000000, 0, 1100, 1100, 1100, 1100
0.376870, -0.160917, 9.884151, 0.071013, 0.007483, 0.045815, 12.993277, 28.675825, -69.891846, -1.163664, -2.637844, -60.326649, 0.000000, 0.000000, 0.000000, 19984, 0.000000, 0.000000, 0.000000, 0.000000, 0.000000, 0.000000, 0.000000, 0, 1100, 1100, 1100, 1100
0.380459, -0.136989, 9.879367, 0.074831, 0.006872, 0.043524, 12.686350, 28.471207, -70.169540, -1.211304, -2.547458, -60.357235, 0.000000, 0.000000, 0.000000, 19528, 0.000000, 0.000000, 0.000000, 0.000000, 0.000000, 0.000000, 0.000000, 0, 1100, 1100, 1100, 1100
0.387039, -0.163908, 9.851252, 0.063225, 0.009316, 0.040317, 12.876352, 28.865829, -69.935692, -1.152197, -2.328170, -60.363327, 0.000000, 0.000000, 0.000000, 19972, 0.000000, 0.000000, 0.000000, 0.000000, 0.000000, 0.000000, 0.000000, 0, 1100, 1100, 1100, 1100
0.368495, -0.172881, 9.868599, 0.066737, 0.006261, 0.042761, 13.241742, 28.734287, -69.716461, -1.006801, -2.024113, -60.341778, 0.000000, 0.000000, 0.000000, 20440, 0.000000, 0.000000, 0.000000, 0.000000, 0.000000, 0.000000, 0.000000, 0, 1100, 1100, 1100, 1100
0.394218, -0.167498, 9.874581, 0.073915, 0.011148, 0.043982, 13.139433, 29.114294, -69.336449, -0.871241, -1.818189, -60.335831, 0.000000, 0.000000, 0.000000, 19992, 0.000000, 0.000000, 0.000000, 0.000000, 0.000000, 0.000000, 0.000000, 0, 1100, 1100, 1100, 1100
0.376870, -0.166301, 9.866804, 0.070097, 0.005803, 0.042761, 13.051740, 28.325050, -69.277992, -0.785090, -1.760062, -60.349701, 0.000000, 0.000000, 0.000000, 19516, 0.000000, 0.000000, 0.000000, 0.000000, 0.000000, 0.000000, 0.000000, 0, 1100, 1100, 1100, 1100
0.394816, -0.167498, 9.850055, 0.071624, 0.011759, 0.044593, 13.300204, 28.412745, -70.154922, -0.755728, -1.845594, -60.375145, 0.000000, 0.000000, 0.000000, 19976, 0.000000, 0.000000, 0.000000, 0.000000, 0.000000, 0.000000, 0.000000, 0, 1100, 1100, 1100, 1100
0.382852, -0.158525, 9.900902, 0.069180, 0.010843, 0.044440, 13.066355, 28.617365, -69.672607, -0.796813, -2.069927, -60.421570, 0.000000, 0.000000, 0.000000, 20440, 0.000000, 0.000000, 0.000000, 0.000000, 0.000000, 0.000000, 0.000000, 0, 1100, 1100, 1100, 1100
0.394816, -0.186042, 9.872188, 0.071777, 0.005192, 0.043371, 13.446361, 28.997370, -69.584915, -0.875190, -2.316874, -60.460194, 0.000000, 0.000000, 0.000000, 19984, 0.000000, 0.000000, 0.000000, 0.000000, 0.000000, 0.000000, 0.000000, 0, 1100, 1100, 1100, 1100
0.373879, -0.186640, 9.876974, 0.067959, 0.006872, 0.041692, 12.744811, 29.304296, -69.964920, -0.995941, -2.553998, -60.509365, 0.000000, 0.000000, 0.000000, 19524, 0.000000, 0.000000, 0.000000, 0.000000, 0.000000, 0.000000, 0.000000, 0, 1100, 1100, 1100, 1100
0.409173, -0.170489, 9.853643, 0.066737, 0.006567, 0.039706, 12.788658, 28.719673, -69.657990, -1.091762, -2.679451, -60.537319, 0.000000, 0.000000, 0.000000, 19976, 0.000000, 0.000000, 0.000000, 0.000000, 0.000000, 0.000000, 0.000000, 0, 1100, 1100, 1100, 1100
0.388834, -0.177667, 9.873982, 0.070555, 0.009468, 0.043219, 13.139433, 28.398129, -69.526451, -1.089644, -2.574381, -60.501816, 0.000000, 0.000000, 0.000000, 20444, 0.000000, 0.000000, 0.000000, 0.000000, 0.000000, 0.000000, 0.000000, 0, 1100, 1100, 1100, 1100
0.381057, -0.172881, 9.865608, 0.072235, 0.009774, 0.042455, 12.934814, 28.763521, -69.935692, -1.020927, -2.321301, -60.430702, 0.000000, 0.000000, 0.000000, 19984, 0.000000, 0.000000, 0.000000, 0.000000, 0.000000, 0.000000, 0.000000, 0, 1100, 1100, 1100, 1100
0.385244, -0.162114, 9.885349, 0.072540, 0.009621, 0.043524, 13.329436, 28.251972, -70.344933, -0.893461, -1.978661, -60.319935, 0.000000, 0.000000, 0.000000, 19520, 0.000000, 0.000000, 0.000000, 0.000000, 0.000000, 0.000000, 0.000000, 0, 1100, 1100, 1100, 1100
0.391825, -0.171685, 9.848859, 0.068570, 0.010843, 0.041081, 13.344051, 28.135050, -70.169540, -0.765748, -1.671533, -60.190502, 0.000000, 0.000000, 0.000000, 19976, 0.000000, 0.000000, 0.000000, 0.000000, 0.000000, 0.000000, 0.000000, 0, 1100, 1100, 1100, 1100
0.401994, -0.161516, 9.894321, 0.072082, 0.006414, 0.044593, 12.861736, 28.325050, -70.140305, -0.735219, -1.606518, -60.104397, 0.000000, 0.000000, 0.000000, 20440, 0.000000, 0.000000, 0.000000, 0.000000, 0.000000, 0.000000, 0.000000, 0, 1100, 1100, 1100, 1100
0.405583, -0.175274, 9.890134, 0.069639, 0.009468, 0.040623, 12.964046, 28.938908, -70.125694, -0.839647, -1.849964, -60.090858, 0.000000, 0.000000, 0.000000, 19988, 0.000000, 0.000000, 0.000000, 0.000000, 0.000000, 0.000000, 0.000000, 0, 1100, 1100, 1100, 1100
0.401994, -0.177667, 9.870394, 0.067195, 0.011454, 0.041844, 13.124818, 28.544287, -70.169540, -1.004564, -2.242734, -60.105324, 0.000000, 0.000000, 0.000000, 19520, 0.000000, 0.000000, 0.000000, 0.000000, 0.000000, 0.000000, 0.000000, 0, 1100, 1100, 1100, 1100
0.393619, -0.177667, 9.871590, 0.075442, 0.009468, 0.042761, 12.686350, 28.675825, -69.994148, -1.180132, -2.669371, -60.133095, 0.000000, 0.000000, 0.000000, 19976, 0.000000, 0.000000, 0.000000, 0.000000, 0.000000, 0.000000, 0.000000, 0, 1100, 1100, 1100, 1100
0.390030, -0.157926, 9.894920, 0.070097, 0.007941, 0.041386, 13.095586, 28.705057, -70.257233, -1.248605, -2.906924, -60.119942, 0.000000, 0.000000, 0.000000, 20444, 0.000000, 0.000000, 0.000000, 0.000000, 0.000000, 0.000000, 0.000000, 0, 1100, 1100, 1100, 1100
0.363111, -0.172283, 9.878170, 0.073915, 0.008705, 0.039859, 13.227126, 28.836596, -69.789536, -1.167646, -2.833348, -60.044830, 0.000000, 0.000000, 0.000000, 19984, 0.000000, 0.000000, 0.000000, 0.000000, 0.000000, 0.000000, 0.000000, 0, 1100, 1100, 1100, 1100
0.404387, -0.146560, 9.905089, 0.072846, 0.010537, 0.042761, 13.241742, 28.763521, -70.768776, -0.965732, -2.515386, -59.918900, 0.000000, 0.000000, 0.000000, 19520, 0.000000, 0.000000, 0.000000, 0.000000, 0.000000, 0.000000, 0.000000, 0, 1100, 1100, 1100, 1100
0.373280, -0.165703, 9.866804, 0.069944, 0.010996, 0.041233, 13.577901, 28.909674, -70.344933, -0.719835, -2.069353, -59.760029, 0.000000, 0.000000, 0.000000, 19980, 0.000000, 0.000000, 0.000000, 0.000000, 0.000000, 0.000000, 0.000000, 0, 1100, 1100, 1100, 1100
0.372682, -0.156132, 9.854242, 0.072998, 0.011454, 0.041233, 13.007893, 28.471207, -69.643379, -0.564196, -1.732593, -59.633583, 0.000000, 0.000000, 0.000000, 20440, 0.000000, 0.000000, 0.000000, 0.000000, 0.000000, 0.000000, 0.000000, 0, 1100, 1100, 1100, 1100
0.394218, -0.150748, 9.891331, 0.069028, 0.006872, 0.042608, 13.504823, 28.675825, -69.248756, -0.559263, -1.645471, -59.567352, 0.000000, 0.000000, 0.000000, 19984, 0.000000, 0.000000, 0.000000, 0.000000, 0.000000, 0.000000, 0.000000, 0, 1100, 1100, 1100, 1100
0.386441, -0.171685, 9.871590, 0.068875, 0.009774, 0.045357, 13.095586, 28.734287, -69.760307, -0.728578, -1.858813, -59.582363, 0.000000, 0.000000, 0.000000, 19516, 0.000000, 0.000000, 0.000000, 0.000000, 0.000000, 0.000000, 0.000000, 0, 1100, 1100, 1100, 1100
0.383450, -0.169292, 9.873384, 0.067195, 0.011301, 0.042913, 12.993277, 28.617365, -69.935692, -1.012839, -2.276577, -59.654491, 0.000000, 0.000000, 0.000000, 19984, 0.000000, 0.000000, 0.000000, 0.000000, 0.000000, 0.000000, 0.000000, 0, 1100, 1100, 1100, 1100
0.403191, -0.157328, 9.853046, 0.072846, 0.012523, 0.045051, 13.154049, 29.041216, -69.175682, -1.291777, -2.723272, -59.744457, 0.000000, 0.000000, 0.000000, 20440, 0.000000, 0.000000, 0.000000, 0.000000, 0.000000, 0.000000, 0.000000, 0, 1100, 1100, 1100, 1100
0.368495, -0.162712, 9.924830, 0.072388, 0.010537, 0.040928, 12.481730, 29.070446, -70.081848, -1.467252, -3.026108, -59.834431, 0.000000, 0.000000, 0.000000, 19984, 0.000000, 0.000000, 0.000000, 0.000000, 0.000000, 0.000000, 0.000000, 0, 1100, 1100, 1100, 1100
0.373280, -0.175274, 9.894920, 0.066126, 0.011759, 0.041692, 13.051740, 29.596609, -70.432625, -1.466388, -3.041527, -59.887135, 0.000000, 0.000000, 0.000000, 19516, 0.000000, 0.000000, 0.000000, 0.000000, 0.000000, 0.000000, 0.000000, 0, 1100, 1100, 1100, 1100
0.345763, -0.015553, 9.854840, 0.077274, 0.008552, 0.042302, 13.387897, 29.377375, -69.321838, -1.197274, -2.718059, -59.885746, 0.000000, 0.000000, 0.000000, 19984, 0.000000, 0.000000, 0.000000, 0.000000, 0.000000, 0.000000, 0.000000, 0, 1100, 1100, 1100, 1100
0.400200, -0.178863, 9.859627, 0.075900, 0.011454, 0.043219, 12.905582, 29.011986, -70.651855, -0.809208, -2.235936, -59.866199, 0.000000, 0.000000, 0.000000, 20440, 0.000000, 0.000000, 0.000000, 0.000000, 0.000000, 0.000000, 0.000000, 0, 1100, 1100, 1100, 1100
0.369691, -0.152542, 9.872787, 0.068875, 0.009316, 0.040928, 12.671733, 28.792751, -69.906464, -0.497799, -1.860342, -59.888084, 0.000000, 0.000000, 0.000000, 19980, 0.000000, 0.000000, 0.000000, 0.000000, 0.000000, 0.000000, 0.000000, 0, 1100, 1100, 1100, 1100
0.385244, -0.171087, 9.873982, 0.081245, 0.008094, 0.040623, 13.007893, 29.041216, -70.491089, -0.376374, -1.736714, -59.978249, 0.000000, 0.000000, 0.000000, 19520, 0.000000, 0.000000, 0.000000, 0.000000, 0.000000, 0.000000, 0.000000, 0, 1100, 1100, 1100, 1100
0.367298, -0.150748, 9.889537, 0.069028, 0.013439, 0.042913, 13.344051, 28.953522, -69.906464, -0.449166, -1.853094, -60.129696, 0.000000, 0.000000, 0.000000, 19988, 0.000000, 0.000000, 0.000000, 0.000000, 0.000000, 0.000000, 0.000000, 0, 1100, 1100, 1100, 1100
0.374477, -0.154337, 9.893126, 0.073151, 0.013439, 0.042761, 12.832504, 29.289680, -70.593391, -0.709345, -2.202615, -60.352741, 0.000000, 0.000000, 0.000000, 20436, 0.000000, 0.000000, 0.000000, 0.000000, 0.000000, 0.000000, 0.000000, 0, 1100, 1100, 1100, 1100
0.376870, -0.155533, 9.884151, 0.076053, 0.005956, 0.042913, 13.197896, 28.661209, -70.140305, -0.991486, -2.525832, -60.558765, 0.000000, 0.000000, 0.000000, 19980, 0.000000, 0.000000, 0.000000, 0.000000, 0.000000, 0.000000, 0.000000, 0, 1100, 1100, 1100, 1100
0.387637, -0.174676, 9.878769, 0.071166, 0.008094, 0.042455, 13.110201, 28.602749, -70.286469, -1.183282, -2.660573, -60.704781, 0.000000, 0.000000, 0.000000, 19524, 0.000000, 0.000000, 0.000000, 0.000000, 0.000000, 0.000000, 0.000000, 0, 1100, 1100, 1100, 1100
0.391227, -0.166899, 9.872787, 0.077580, 0.007941, 0.043371, 12.905582, 28.515053, -70.593391, -1.234042, -2.559035, -60.786293, 0.000000, 0.000000, 0.000000, 19988, 0.000000, 0.000000, 0.000000, 0.000000, 0.000000, 0.000000, 0.000000, 0, 1100, 1100, 1100, 1100
0.351745, -0.162114, 9.912866, 0.071166, 0.008399, 0.039859, 12.890967, 28.310436, -70.520317, -1.130490, -2.227925, -60.803082, 0.000000, 0.000000, 0.000000, 20440, 0.000000, 0.000000, 0.000000, 0.000000, 0.000000, 0.000000, 0.000000, 0, 1100, 1100, 1100, 1100
0.367896, -0.177069, 9.870394, 0.059407, 0.006261, 0.043066, 12.832504, 28.909674, -70.301079, -0.973702, -1.867120, -60.802235, 0.000000, 0.000000, 0.000000, 19972, 0.000000, 0.000000, 0.000000, 0.000000, 0.000000, 0.000000, 0.000000, 0, 1100, 1100, 1100, 1100
0.387637, -0.153739, 9.902099, 0.061697, 0.010690, 0.044593, 12.496346, 28.602749, -70.637238, -0.848520, -1.660923, -60.827747, 0.000000, 0.000000, 0.000000, 19524, 0.000000, 0.000000, 0.000000, 0.000000, 0.000000, 0.000000, 0.000000, 0, 1100, 1100, 1100, 1100
0.391825, -0.170489, 9.869795, 0.071929, 0.007178, 0.042150, 12.510962, 28.997370, -69.614151, -0.818469, -1.720165, -60.914768, 0.000000, 0.000000, 0.000000, 19988, 0.000000, 0.000000, 0.000000, 0.000000, 0.000000, 0.000000, 0.000000, 0, 1100, 1100, 1100, 1100
0.385244, -0.160319, 9.879965, 0.069486, 0.008399, 0.042455, 13.300204, 29.143524, -69.921074, -0.843803, -1.948103, -61.022480, 0.000000, 0.000000, 0.000000, 20444, 0.000000, 0.000000, 0.000000, 0.000000, 0.000000, 0.000000, 0.000000, 0, 1100, 1100, 1100, 1100
0.371486, -0.155533, 9.870394, 0.062461, 0.007483, 0.041844, 12.890967, 28.646595, -70.125694, -0.885636, -2.220290, -61.121929, 0.000000, 0.000000, 0.000000, 19968, 0.000000, 0.000000, 0.000000, 0.000000, 0.000000, 0.000000, 0.000000, 0, 1100, 1100, 1100, 1100
0.376870, -0.168096, 9.902099, 0.071929, 0.011606, 0.044593, 12.949430, 28.412745, -69.234146, -0.898072, -2.400685, -61.180630, 0.000000, 0.000000, 0.000000, 19524, 0.000000, 0.000000, 0.000000, 0.000000, 0.000000, 0.000000, 0.000000, 0, 1100, 1100, 1100, 1100
0.363111, -0.172283, 9.875179, 0.076205, 0.009621, 0.043066, 12.861736, 28.427359, -69.614151, -0.868451, -2.423720, -61.189426, 0.000000, 0.000000, 0.000000, 19988, 0.000000, 0.000000, 0.000000, 0.000000, 0.000000, 0.000000, 0.000000, 0, 1100, 1100, 1100, 1100
0.383450, -0.162712, 9.875777, 0.067959, 0.010843, 0.041386, 13.285589, 28.471207, -70.447235, -0.777152, -2.245281, -61.126102, 0.000000, 0.000000, 0.000000, 20440, 0.000000, 0.000000, 0.000000, 0.000000, 0.000000, 0.000000, 0.000000, 0, 1100, 1100, 1100, 1100
0.384646, -0.169890, 9.888339, 0.072388, 0.010537, 0.042150, 13.080971, 28.441978, -69.877228, -0.685212, -1.982045, -61.021839, 0.000000, 0.000000, 0.000000, 19972, 0.000000, 0.000000, 0.000000, 0.000000, 0.000000, 0.000000, 0.000000, 0, 1100, 1100, 1100, 1100
0.372682, -0.167498, 9.862019, 0.066432, 0.005345, 0.045204, 12.832504, 28.310436, -70.067230, -0.656607, -1.774968, -60.917202, 0.000000, 0.000000, 0.000000, 19524, 0.000000, 0.000000, 0.000000, 0.000000, 0.000000, 0.000000, 0.000000, 0, 1100, 1100, 1100, 1100
0.384646, -0.156730, 9.879965, 0.064904, 0.009316, 0.044288, 13.285589, 28.500439, -70.096466, -0.695302, -1.675956, -60.813183, 0.000000, 0.000000, 0.000000, 19988, 0.000000, 0.000000, 0.000000, 0.000000, 0.000000, 0.000000, 0.000000, 0, 1100, 1100, 1100, 1100
0.390628, -0.169292, 9.869196, 0.073915, 0.007178, 0.042913, 13.066355, 28.441978, -70.169540, -0.812211, -1.747105, -60.726620, 0.000000, 0.000000, 0.000000, 20440, 0.000000, 0.000000, 0.000000, 0.000000, 0.000000, 0.000000, 0.000000, 0, 1100, 1100, 1100, 1100
0.396012, -0.159721, 9.878170, 0.068875, 0.009774, 0.043677, 12.920199, 28.646595, -70.637238, -0.974701, -1.977420, -60.666641, 0.000000, 0.000000, 0.000000, 19972, 0.000000, 0.000000, 0.000000, 0.000000, 0.000000, 0.000000, 0.000000, 0, 1100, 1100, 1100, 1100
0.381655, -0.160319, 9.842278, 0.074220, 0.007789, 0.043066, 13.168664, 28.485823, -69.877228, -1.100745, -2.227541, -60.598175, 0.000000, 0.000000, 0.000000, 19524, 0.000000, 0.000000, 0.000000, 0.000000, 0.000000, 0.000000, 0.000000, 0, 1100, 1100, 1100, 1100
0.389432, -0.175872, 9.873384, 0.073609, 0.009316, 0.045662, 13.197896, 28.135050, -69.935692, -1.132616, -2.378401, -60.484692, 0.000000, 0.000000, 0.000000, 19988, 0.000000, 0.000000, 0.000000, 0.000000, 0.000000, 0.000000, 0.000000, 0, 1100, 1100, 1100, 1100
0.381057, -0.190229, 9.881759, 0.070097, 0.008552, 0.044899, 12.934814, 28.310436, -69.687225, -1.082907, -2.405479, -60.334129, 0.000000, 0.000000, 0.000000, 20440, 0.000000, 0.000000, 0.000000, 0.000000, 0.000000, 0.000000, 0.000000, 0, 1100, 1100, 1100, 1100
0.402592, -0.178265, 9.903893, 0.072082, 0.008552, 0.044135, 12.671733, 28.398129, -69.833382, -0.998985, -2.363725, -60.178394, 0.000000, 0.000000, 0.000000, 19976, 0.000000, 0.000000, 0.000000, 0.000000, 0.000000, 0.000000, 0.000000, 0, 1100, 1100, 1100, 1100
0.387039, -0.178863, 9.858430, 0.072846, 0.008552, 0.043830, 12.803274, 28.266588, -70.023384, -0.911726, -2.279572, -60.022964, 0.000000, 0.000000, 0.000000, 19520, 0.000000, 0.000000, 0.000000, 0.000000, 0.000000, 0.000000, 0.000000, 0, 1100, 1100, 1100, 1100
0.405583, -0.188435, 9.892527, 0.067653, 0.005040, 0.042455, 13.154049, 28.456593, -70.257233, -0.846469, -2.183776, -59.862087, 0.000000, 0.000000, 0.000000, 19988, 0.000000, 0.000000, 0.000000, 0.000000, 0.000000, 0.000000, 0.000000, 0, 1100, 1100, 1100, 1100
0.405583, -0.172283, 9.869196, 0.074373, 0.009163, 0.043066, 13.124818, 28.544287, -70.023384, -0.836094, -2.141939, -59.713871, 0.000000, 0.000000, 0.000000, 20440, 0.000000, 0.000000, 0.000000, 0.000000, 0.000000, 0.000000, 0.000000, 0, 1100, 1100, 1100, 1100
0.381655, -0.166301, 9.851849, 0.070555, 0.010537, 0.044899, 13.460976, 28.748903, -70.593391, -0.873281, -2.150923, -59.582050, 0.000000, 0.000000, 0.000000, 19976, 0.000000, 0.000000, 0.000000, 0.000000, 0.000000, 0.000000, 0.000000, 0, 1100, 1100, 1100, 1100
0.388235, -0.166301, 9.851849, 0.070708, 0.006261, 0.045968, 13.037125, 28.748903, -70.198776, -0.966433, -2.245380, -59.487629, 0.000000, 0.000000, 0.000000, 19520, 0.000000, 0.000000, 0.000000, 0.000000, 0.000000, 0.000000, 0.000000, 0, 1100, 1100, 1100, 1100
0.393619, -0.167498, 9.871590, 0.070708, 0.009621, 0.044899, 13.227126, 28.821981, -69.687225, -1.082021, -2.384271, -59.415455, 0.000000, 0.000000, 0.000000, 19992, 0.000000, 0.000000, 0.000000, 0.000000, 0.000000, 0.000000, 0.000000, 0, 1100, 1100, 1100, 1100
0.401994, -0.148355, 9.929616, 0.074678, 0.011148, 0.042608, 13.080971, 28.412745, -70.052620, -1.157945, -2.498616, -59.347706, 0.000000, 0.000000, 0.000000, 20440, 0.000000, 0.000000, 0.000000, 0.000000, 0.000000, 0.000000, 0.000000, 0, 1100, 1100, 1100, 1100
0.390030, -0.151346, 9.892527, 0.069333, 0.007330, 0.043219, 13.037125, 28.573517, -70.271851, -1.164437, -2.546270, -59.284286, 0.000000, 0.000000, 0.000000, 19972, 0.000000, 0.000000, 0.000000, 0.000000, 0.000000, 0.000000, 0.000000, 0, 1100, 1100, 1100, 1100
0.379861, -0.164507, 9.878170, 0.069486, 0.010843, 0.043219, 12.642503, 28.339666, -70.067230, -1.123622, -2.540421, -59.236866, 0.000000, 0.000000, 0.000000, 19524, 0.000000, 0.000000, 0.000000, 0.000000, 0.000000, 0.000000, 0.000000, 0, 1100, 1100, 1100, 1100
0.375075, -0.163908, 9.891331, 0.078191, 0.010690, 0.044440, 12.832504, 28.135050, -69.964920, -1.037321, -2.462335, -59.194130, 0.000000, 0.000000, 0.000000, 19980, 0.000000, 0.000000, 0.000000, 0.000000, 0.000000, 0.000000, 0.000000, 0, 1100, 1100, 1100, 1100
0.387637, -0.185444, 9.854840, 0.064752, 0.004734, 0.040317, 12.978661, 28.281202, -70.344933, -0.945566, -2.344512, -59.159916, 0.000000, 0.000000, 0.000000, 20448, 0.000000, 0.000000, 0.000000, 0.000000, 0.000000, 0.000000, 0.000000, 0, 1100, 1100, 1100, 1100
0.403789, -0.161516, 9.889537, 0.070097, 0.006872, 0.040012, 12.598655, 28.237358, -70.286469, -0.905849, -2.291584, -59.164322, 0.000000, 0.000000, 0.000000, 19972, 0.000000, 0.000000, 0.000000, 0.000000, 0.000000, 0.000000, 0.000000, 0, 1100, 1100, 1100, 1100
0.404387, -0.174078, 9.876974, 0.073762, 0.007941, 0.043066, 12.759428, 27.769657, -69.701843, -0.913353, -2.294322, -59.192699, 0.000000, 0.000000, 0.000000, 19524, 0.000000, 0.000000, 0.000000, 0.000000, 0.000000, 0.000000, 0.000000, 0, 1100, 1100, 1100, 1100
0.366700, -0.180658, 9.885349, 0.075136, 0.009774, 0.044440, 12.554808, 28.471207, -70.637238, -0.995549, -2.380892, -59.267204, 0.000000, 0.000000, 0.000000, 19980, 0.000000, 0.000000, 0.000000, 0.000000, 0.000000, 0.000000, 0.000000, 0, 1100, 1100, 1100, 1100
0.406780, -0.175872, 9.881162, 0.067348, 0.007025, 0.043830, 12.584040, 28.266588, -69.804153, -1.117952, -2.512989, -59.375225, 0.000000, 0.000000, 0.000000, 20444, 0.000000, 0.000000, 0.000000, 0.000000, 0.000000, 0.000000, 0.000000, 0, 1100, 1100, 1100, 1100
0.424128, -0.165105, 9.864411, 0.073304, 0.009774, 0.043830, 12.730196, 28.529671, -69.336449, -1.218467, -2.630102, -59.494186, 0.000000, 0.000000, 0.000000, 19976, 0.000000, 0.000000, 0.000000, 0.000000, 0.000000, 0.000000, 0.000000, 0, 1100, 1100, 1100, 1100
0.407976, -0.168694, 9.942776, 0.074373, 0.007941, 0.041997, 12.934814, 27.945045, -69.497223, -1.221994, -2.619431, -59.581127, 0.000000, 0.000000, 0.000000, 19532, 0.000000, 0.000000, 0.000000, 0.000000, 0.000000, 0.000000, 0.000000, 0, 1100, 1100, 1100, 1100
0.402592, -0.174676, 9.885349, 0.075289, 0.007178, 0.045051, 12.817889, 28.076586, -69.935692, -1.135417, -2.488785, -59.641850, 0.000000, 0.000000, 0.000000, 19972, 0.000000, 0.000000, 0.000000, 0.000000, 0.000000, 0.000000, 0.000000, 0, 1100, 1100, 1100, 1100
0.400200, -0.169292, 9.882956, 0.069180, 0.008399, 0.042913, 12.700965, 28.354280, -69.409531, -1.012464, -2.323786, -59.702301, 0.000000, 0.000000, 0.000000, 20444, 0.000000, 0.000000, 0.000000, 0.000000, 0.000000, 0.000000, 0.000000, 0, 1100, 1100, 1100, 1100
0.366700, -0.177069, 9.852448, 0.065973, 0.010537, 0.042761, 13.095586, 28.661209, -69.964920, -0.901027, -2.169612, -59.764832, 0.000000, 0.000000, 0.000000, 19976, 0.000000, 0.000000, 0.000000, 0.000000, 0.000000, 0.000000, 0.000000, 0, 1100, 1100, 1100, 1100
0.370888, -0.162712, 9.868000, 0.069791, 0.008247, 0.043066, 13.066355, 28.310436, -69.570305, -0.826560, -2.061896, -59.833126, 0.000000, 0.000000, 0.000000, 19532, 0.000000, 0.000000, 0.000000, 0.000000, 0.000000, 0.000000, 0.000000, 0, 1100, 1100, 1100, 1100
0.404387, -0.160319, 9.887143, 0.070402, 0.007789, 0.042761, 12.920199, 28.383514, -69.687225, -0.815231, -2.060716, -59.925541, 0.000000, 0.000000, 0.000000, 19972, 0.000000, 0.000000, 0.000000, 0.000000, 0.000000, 0.000000, 0.000000, 0, 1100, 1100, 1100, 1100
0.388834, -0.171087, 9.886545, 0.072998, 0.007636, 0.042608, 13.022508, 28.354280, -69.614151, -0.862816, -2.149785, -60.034481, 0.000000, 0.000000, 0.000000, 20444, 0.000000, 0.000000, 0.000000, 0.000000, 0.000000, 0.000000, 0.000000, 0, 1100, 1100, 1100, 1100
0.397807, -0.177069, 9.931411, 0.070555, 0.005498, 0.042455, 13.314821, 28.193510, -69.877228, -0.918350, -2.235408, -60.121197, 0.000000, 0.000000, 0.000000, 19984, 0.000000, 0.000000, 0.000000, 0.000000, 0.000000, 0.000000, 0.000000, 0, 1100, 1100, 1100, 1100
0.384048, -0.194417, 9.866206, 0.067042, 0.010843, 0.043677, 13.490208, 28.310436, -70.023384, -0.954327, -2.251320, -60.165920, 0.000000, 0.000000, 0.000000, 19524, 0.000000, 0.000000, 0.000000, 0.000000, 0.000000, 0.000000, 0.000000, 0, 1100, 1100, 1100, 1100
0.384646, -0.160917, 9.877571, 0.070097, 0.012523, 0.044288, 12.554808, 28.208128, -70.228004, -0.998152, -2.267478, -60.209469, 0.000000, 0.000000, 0.000000, 19972, 0.000000, 0.000000, 0.000000, 0.000000, 0.000000, 0.000000, 0.000000, 0, 1100, 1100, 1100, 1100
0.400798, -0.159721, 9.887741, 0.067195, 0.007330, 0.043982, 12.744811, 28.325050, -69.467995, -1.031691, -2.284411, -60.251884, 0.000000, 0.000000, 0.000000, 20444, 0.000000, 0.000000, 0.000000, 0.000000, 0.000000, 0.000000, 0.000000, 0, 1100, 1100, 1100, 1100
0.404985, -0.159721, 9.872188, 0.068111, 0.013134, 0.043830, 12.613271, 28.734287, -70.052620, -1.056585, -2.329080, -60.304329, 0.000000, 0.000000, 0.000000, 19984, 0.000000, 0.000000, 0.000000, 0.000000, 0.000000, 0.000000, 0.000000, 0, 1100, 1100, 1100, 1100
0.393021, -0.159721, 9.898509, 0.067959, 0.009927, 0.040775, 12.890967, 28.968138, -69.599533, -1.054918, -2.368815, -60.357632, 0.000000, 0.000000, 0.000000, 19536, 0.000000, 0.000000, 0.000000, 0.000000, 0.000000, 0.000000, 0.000000, 0, 1100, 1100, 1100, 1100
0.361914, -0.163310, 9.894920, 0.072693, 0.006872, 0.045509, 12.832504, 28.339666, -69.628761, -1.004593, -2.339432, -60.394024, 0.000000, 0.000000, 0.000000, 19976, 0.000000, 0.000000, 0.000000, 0.000000, 0.000000, 0.000000, 0.000000, 0, 1100, 1100, 1100, 1100
0.364905, -0.167498, 9.885946, 0.073304, 0.007789, 0.043219, 13.080971, 28.544287, -69.365677, -0.913254, -2.227192, -60.406631, 0.000000, 0.000000, 0.000000, 20428, 0.000000, 0.000000, 0.000000, 0.000000, 0.000000, 0.000000, 0.000000, 0, 1100, 1100, 1100, 1100
0.399601, -0.160319, 9.864411, 0.071013, 0.008399, 0.040012, 13.387897, 28.646595, -69.511833, -0.804088, -2.073999, -60.392426, 0.000000, 0.000000, 0.000000, 19984, 0.000000, 0.000000, 0.000000, 0.000000, 0.000000, 0.000000, 0.000000, 0, 1100, 1100, 1100, 1100
0.385843, -0.177667, 9.876974, 0.068875, 0.005803, 0.040775, 13.417130, 28.748903, -69.716461, -0.728214, -1.949622, -60.367638, 0.000000, 0.000000, 0.000000, 19536, 0.000000, 0.000000, 0.000000, 0.000000, 0.000000, 0.000000, 0.000000, 0, 1100, 1100, 1100, 1100
0.404985, -0.152542, 9.839885, 0.072693, 0.008094, 0.043830, 13.270972, 28.032738, -69.555687, -0.692125, -1.888141, -60.332153, 0.000000, 0.000000, 0.000000, 19976, 0.000000, 0.000000, 0.000000, 0.000000, 0.000000, 0.000000, 0.000000, 0, 1100, 1100, 1100, 1100
0.383450, -0.167498, 9.876375, 0.068264, 0.009468, 0.044288, 13.548671, 28.573517, -69.877228, -0.713745, -1.911728, -60.291748, 0.000000, 0.000000, 0.000000, 20428, 0.000000, 0.000000, 0.000000, 0.000000, 0.000000, 0.000000, 0.000000, 0, 1100, 1100, 1100, 1100
0.384048, -0.165105, 9.849456, 0.070555, 0.006720, 0.040164, 12.657118, 28.529671, -70.447235, -0.829581, -2.088006, -60.288509, 0.000000, 0.000000, 0.000000, 19984, 0.000000, 0.000000, 0.000000, 0.000000, 0.000000, 0.000000, 0.000000, 0, 1100, 1100, 1100, 1100
0.367896, -0.162114, 9.883554, 0.070555, 0.007789, 0.043982, 13.022508, 28.661209, -70.564163, -0.975206, -2.303193, -60.295448, 0.000000, 0.000000, 0.000000, 19536, 0.000000, 0.000000, 0.000000, 0.000000, 0.000000, 0.000000, 0.000000, 0, 1100, 1100, 1100, 1100
0.357129, -0.165703, 9.903295, 0.071166, 0.010843, 0.040623, 13.037125, 28.325050, -70.023384, -1.083373, -2.435202, -60.280697, 0.000000, 0.000000, 0.000000, 19980, 0.000000, 0.000000, 0.000000, 0.000000, 0.000000, 0.000000, 0.000000, 0, 1100, 1100, 1100, 1100
0.393619, -0.168694, 9.878170, 0.068570, 0.007330, 0.043830, 13.139433, 28.661209, -69.891846, -1.116497, -2.439566, -60.234249, 0.000000, 0.000000, 0.000000, 20424, 0.000000, 0.000000, 0.000000, 0.000000, 0.000000, 0.000000, 0.000000, 0, 1100, 1100, 1100, 1100
0.370888, -0.156730, 9.892527, 0.067348, 0.005803, 0.045051, 12.934814, 28.105816, -70.710320, -1.056036, -2.302991, -60.154175, 0.000000, 0.000000, 0.000000, 19984, 0.000000, 0.000000, 0.000000, 0.000000, 0.000000, 0.000000, 0.000000, 0, 1100, 1100, 1100, 1100
0.389432, -0.156730, 9.857831, 0.073151, 0.010079, 0.042761, 12.993277, 28.091202, -69.994148, -0.936675, -2.102239, -60.054943, 0.000000, 0.000000, 0.000000, 19540, 0.000000, 0.000000, 0.000000, 0.000000, 0.000000, 0.000000, 0.000000, 0, 1100, 1100, 1100, 1100
0.370289, -0.158525, 9.888339, 0.069944, 0.007636, 0.041997, 12.730196, 28.018124, -69.657990, -0.824714, -1.945317, -59.966808, 0.000000, 0.000000, 0.000000, 19976, 0.000000, 0.000000, 0.000000, 0.000000, 0.000000, 0.000000, 0.000000, 0, 1100, 1100, 1100, 1100
0.377468, -0.168694, 9.865010, 0.071929, 0.007789, 0.041997, 13.519439, 28.076586, -69.760307, -0.733952, -1.839558, -59.873318, 0.000000, 0.000000, 0.000000, 20424, 0.000000, 0.000000, 0.000000, 0.000000, 0.000000, 0.000000, 0.000000, 0, 1100, 1100, 1100, 1100
0.350549, -0.168694, 9.884151, 0.064446, 0.007941, 0.042913, 13.095586, 28.339666, -70.213387, -0.733408, -1.871211, -59.813995, 0.000000, 0.000000, 0.000000, 19984, 0.000000, 0.000000, 0.000000, 0.000000, 0.000000, 0.000000, 0.000000, 0, 1100, 1100, 1100, 1100
0.378066, -0.007178, 9.885946, 0.071319, 0.011759, 0.042455, 13.051740, 28.237358, -69.760307, -0.746059, -2.032742, -59.792324, 0.000000, 0.000000, 0.000000, 19540, 0.000000, 0.000000, 0.000000, 0.000000, 0.000000, 0.000000, 0.000000, 0, 1100, 1100, 1100, 1100
0.375075, -0.151346, 9.858430, 0.079718, 0.006414, 0.046273, 13.124818, 28.339666, -70.651855, -0.772111, -2.260704, -59.791340, 0.000000, 0.000000, 0.000000, 19960, 0.000000, 0.000000, 0.000000, 0.000000, 0.000000, 0.000000, 0.000000, 0, 1100, 1100, 1100, 1100
0.390030, -0.162114, 9.881759, 0.069028, 0.009010, 0.040928, 12.510962, 28.485823, -70.374161, -0.842788, -2.541133, -59.826637, 0.000000, 0.000000, 0.000000, 20452, 0.000000, 0.000000, 0.000000, 0.000000, 0.000000, 0.000000, 0.000000, 0, 1100, 1100, 1100, 1100
0.387039, -0.165703, 9.878170, 0.076053, 0.012981, 0.044899, 13.285589, 28.222742, -70.140305, -0.875279, -2.668485, -59.831787, 0.000000, 0.000000, 0.000000, 19988, 0.000000, 0.000000, 0.000000, 0.000000, 0.000000, 0.000000, 0.000000, 0, 1100, 1100, 1100, 1100
0.375673, -0.175872, 9.825528, 0.071624, 0.009010, 0.047189, 13.168664, 28.836596, -69.833382, -0.885703, -2.635671, -59.814564, 0.000000, 0.000000, 0.000000, 19504, 0.000000, 0.000000, 0.000000, 0.000000, 0.000000, 0.000000, 0.000000, 0, 1100, 1100, 1100, 1100
0.387039, -0.162712, 9.862019, 0.072540, 0.006261, 0.042455, 12.920199, 28.719673, -70.330307, -0.891501, -2.487309, -59.789074, 0.000000, 0.000000, 0.000000, 19980, 0.000000, 0.000000, 0.000000, 0.000000, 0.000000, 0.000000, 0.000000, 0, 1100, 1100, 1100, 1100
0.368495, -0.177069, 9.872787, 0.072082, 0.005651, 0.041844, 13.080971, 28.120432, -69.672607, -0.888650, -2.234222, -59.745529, 0.000000, 0.000000, 0.000000, 20460, 0.000000, 0.000000, 0.000000, 0.000000, 0.000000, 0.000000, 0.000000, 0, 1100, 1100, 1100, 1100
0.396012, -0.153141, 9.897313, 0.073457, 0.005345, 0.041539, 13.256357, 28.617365, -69.526451, -0.898468, -2.006759, -59.709541, 0.000000, 0.000000, 0.000000, 19984, 0.000000, 0.000000, 0.000000, 0.000000, 0.000000, 0.000000, 0.000000, 0, 1100, 1100, 1100, 1100
0.394816, -0.159721, 9.884750, 0.069180, 0.010996, 0.040928, 12.759428, 28.398129, -69.891846, -0.956777, -1.930517, -59.714828, 0.000000, 0.000000, 0.000000, 19500, 0.000000, 0.000000, 0.000000, 0.000000, 0.000000, 0.000000, 0.000000, 0, 1100, 1100, 1100, 1100
0.373879, -0.163908, 9.865608, 0.071319, 0.009163, 0.042150, 13.446361, 27.915815, -69.716461, -1.004868, -1.924646, -59.719486, 0.000000, 0.000000, 0.000000, 19980, 0.000000, 0.000000, 0.000000, 0.000000, 0.000000, 0.000000, 0.000000, 0, 1100, 1100, 1100, 1100
0.397209, -0.154337, 9.876974, 0.066737, 0.008399, 0.046884, 12.978661, 28.091202, -70.140305, -1.047153, -2.031074, -59.740570, 0.000000, 0.000000, 0.000000, 20460, 0.000000, 0.000000, 0.000000, 0.000000, 0.000000, 0.000000, 0.000000, 0, 1100, 1100, 1100, 1100
0.374477, -0.162712, 9.885946, 0.071624, 0.010232, 0.041844, 12.847121, 28.266588, -69.599533, -1.079669, -2.218628, -59.782230, 0.000000, 0.000000, 0.000000, 19976, 0.000000, 0.000000, 0.000000, 0.000000, 0.000000, 0.000000, 0.000000, 0, 1100, 1100, 1100, 1100
0.381655, -0.167498, 9.902099, 0.073151, 0.008705, 0.043219, 12.832504, 28.105816, -69.467995, -1.079073, -2.400457, -59.826080, 0.000000, 0.000000, 0.000000, 19508, 0.000000, 0.000000, 0.000000, 0.000000, 0.000000, 0.000000, 0.000000, 0, 1100, 1100, 1100, 1100
0.391227, -0.164507, 9.900304, 0.071471, 0.007483, 0.043371, 12.803274, 27.974277, -69.994148, -1.025771, -2.507872, -59.855747, 0.000000, 0.000000, 0.000000, 19988, 0.000000, 0.000000, 0.000000, 0.000000, 0.000000, 0.000000, 0.000000, 0, 1100, 1100, 1100, 1100
0.389432, -0.187238, 9.882956, 0.074984, 0.009621, 0.044288, 13.183279, 27.886581, -70.344933, -0.908779, -2.456765, -59.840649, 0.000000, 0.000000, 0.000000, 20456, 0.000000, 0.000000, 0.000000, 0.000000, 0.000000, 0.000000, 0.000000, 0, 1100, 1100, 1100, 1100
0.391227, -0.174078, 9.876375, 0.071471, 0.008094, 0.040470, 12.554808, 28.354280, -70.988014, -0.822364, -2.366720, -59.828892, 0.000000, 0.000000, 0.000000, 19972, 0.000000, 0.000000, 0.000000, 0.000000, 0.000000, 0.000000, 0.000000, 0, 1100, 1100, 1100, 1100
0.403191, -0.159123, 9.892527, 0.070555, 0.009163, 0.041386, 13.080971, 28.135050, -70.242622, -0.764751, -2.246881, -59.808510, 0.000000, 0.000000, 0.000000, 19508, 0.000000, 0.000000, 0.000000, 0.000000, 0.000000, 0.000000, 0.000000, 0, 1100, 1100, 1100, 1100
0.370888, -0.168096, 9.887143, 0.072540, 0.010079, 0.043830, 12.817889, 28.573517, -70.140305, -0.784199, -2.177881, -59.811878, 0.000000, 0.000000, 0.000000, 19996, 0.000000, 0.000000, 0.000000, 0.000000, 0.000000, 0.000000, 0.000000, 0, 1100, 1100, 1100, 1100
0.397209, -0.167498, 9.864411, 0.068264, 0.007330, 0.044288, 12.540193, 28.515053, -70.125694, -0.899287, -2.224669, -59.859928, 0.000000, 0.000000, 0.000000, 20448, 0.000000, 0.000000, 0.000000, 0.000000, 0.000000, 0.000000, 0.000000, 0, 1100, 1100, 1100, 1100
0.392423, -0.166899, 9.889537, 0.073915, 0.011759, 0.039554, 12.890967, 28.471207, -70.228004, -1.042133, -2.316679, -59.922970, 0.000000, 0.000000, 0.000000, 19972, 0.000000, 0.000000, 0.000000, 0.000000, 0.000000, 0.000000, 0.000000, 0, 1100, 1100, 1100, 1100
0.381057, -0.169292, 9.891331, 0.071929, 0.010232, 0.042913, 13.080971, 27.652735, -69.950310, -1.119603, -2.324502, -59.952232, 0.000000, 0.000000, 0.000000, 19508, 0.000000, 0.000000, 0.000000, 0.000000, 0.000000, 0.000000, 0.000000, 0, 1100, 1100, 1100, 1100
0.375075, -0.174676, 9.878170, 0.066737, 0.010385, 0.042302, 13.314821, 28.105816, -69.687225, -1.111544, -2.224975, -59.941223, 0.000000, 0.000000, 0.000000, 19988, 0.000000, 0.000000, 0.000000, 0.000000, 0.000000, 0.000000, 0.000000, 0, 1100, 1100, 1100, 1100
0.376271, -0.160917, 9.834501, 0.073457, 0.003665, 0.043982, 12.890967, 28.427359, -70.286469, -1.058907, -2.113946, -59.926620, 0.000000, 0.000000, 0.000000, 20444, 0.000000, 0.000000, 0.000000, 0.000000, 0.000000, 0.000000, 0.000000, 0, 1100, 1100, 1100, 1100
0.385843, -0.167498, 9.891929, 0.078954, 0.008094, 0.043524, 13.270972, 28.295820, -69.716461, -0.973513, -2.016575, -59.904064, 0.000000, 0.000000, 0.000000, 19972, 0.000000, 0.000000, 0.000000, 0.000000, 0.000000, 0.000000, 0.000000, 0, 1100, 1100, 1100, 1100
0.389432, -0.163310, 9.881759, 0.076053, 0.008705, 0.042455, 13.314821, 28.266588, -70.081848, -0.882550, -1.967499, -59.878548, 0.000000, 0.000000, 0.000000, 19524, 0.000000, 0.000000, 0.000000, 0.000000, 0.000000, 0.000000, 0.000000, 0, 1100, 1100, 1100, 1100
0.382852, -0.166899, 9.881759, 0.073762, 0.013286, 0.045968, 13.022508, 28.222742, -69.877228, -0.828733, -2.014431, -59.868931, 0.000000, 0.000000, 0.000000, 19984, 0.000000, 0.000000, 0.000000, 0.000000, 0.000000, 0.000000, 0.000000, 0, 1100, 1100, 1100, 1100
0.400798, -0.166301, 9.896116, 0.069791, 0.009927, 0.043371, 13.285589, 28.354280, -70.111076, -0.815764, -2.136827, -59.866779, 0.000000, 0.000000, 0.000000, 20444, 0.000000, 0.000000, 0.000000, 0.000000, 0.000000, 0.000000, 0.000000, 0, 1100, 1100, 1100, 1100
0.393619, -0.157926, 9.879965, 0.076969, 0.009316, 0.040623, 12.993277, 27.857351, -69.131836, -0.832237, -2.282965, -59.864246, 0.000000, 0.000000, 0.000000, 19972, 0.000000, 0.000000, 0.000000, 0.000000, 0.000000, 0.000000, 0.000000, 0, 1100, 1100, 1100, 1100
0.379262, -0.159123, 9.881162, 0.059712, 0.007178, 0.045968, 12.964046, 28.836596, -69.190292, -0.890754, -2.446144, -59.879410, 0.000000, 0.000000, 0.000000, 19544, 0.000000, 0.000000, 0.000000, 0.000000, 0.000000, 0.000000, 0.000000, 0, 1100, 1100, 1100, 1100
0.375075, -0.175274, 9.861421, 0.068111, 0.009774, 0.044288, 13.007893, 28.208128, -69.891846, -0.947656, -2.525615, -59.880638, 0.000000, 0.000000, 0.000000, 19988, 0.000000, 0.000000, 0.000000, 0.000000, 0.000000, 0.000000, 0.000000, 0, 1100, 1100, 1100, 1100
0.376870, -0.163310, 9.874581, 0.080023, 0.012523, 0.044135, 13.154049, 28.456593, -69.921074, -0.972545, -2.475316, -59.856514, 0.000000, 0.000000, 0.000000, 20420, 0.000000, 0.000000, -0.225882, 0.000000, 0.000000, -4.517648, 0.000000, 0, 1104, 1104, 1100, 1100
