acc.x, acc.y, acc.z, gyro.x, gyro.y, gyro.z, magn.x, magn.y, magn.z, roll, pitch, yaw, roll_var, pitch_var, yaw_var, kf_dt, throttle, command_roll, command_pitch, command_yaw, pid_roll, pid_pitch, pid_yaw, motors_armed, m1_speed, m2_speed, m3_speed, m4_speed
0.000000, -15677119905612728299679628819999752192.000000, 0.000000, 0.016341, 0.000000, 37778931862957161709568.000000, 773789.937500, 0.000000, 0.000000, 0.000000, 37778931862957161709568.000000, 0.000000, 0.000000, 0.000000, 0.000000, 0, 0.000000, 0.000000, 0.000000, 0.000000, 0.000000, -0.000000, 52127010816.000000, 32, 15510, 40904, 15763, 8825
-0.754337, -0.346959, 9.724431, 0.016341, 0.059865, 0.002596, 26.074249, 2.645425, -44.314529, -1.311404, 0.067080, 177.258911, 0.028551, 0.003689, 0.001433, 79960, 0.000000, 0.000000, 0.000000, 0.000000, 1.311404, -0.067080, 0.000000, 0, 1086, 1080, 1080, 1087
-0.759123, -0.357129, 9.724431, 0.017257, 0.062156, 0.000000, 26.074249, 2.645425, -44.314529, 0.041040, 0.202640, 177.573761, 0.028552, 0.003688, 0.001433, 79932, 0.000000, 0.000000, 0.000000, 0.000000, -0.041040, -0.202640, -0.000000, 0, 1080, 1080, 1081, 1080
-0.738186, -0.334995, 9.699904, 0.016799, 0.071166, 0.001374, 26.074249, 2.645425, -44.314529, -1.294029, -0.034645, 177.257904, 0.028553, 0.003687, 0.001433, 79940, 0.000000, 0.000000, 0.000000, 0.000000, 1.294029, 0.034645, 0.000000, 0, 1086, 1080, 1080, 1086
-0.760319, -0.345763, 9.702298, 0.018021, 0.070708, -0.002138, 26.074249, 2.645425, -44.314529, 0.017993, 0.336068, 177.546555, 0.028553, 0.003687, 0.001433, 79940, 0.000000, 0.000000, 0.000000, 0.000000, -0.017993, -0.336068, -0.000000, 0, 1080, 1080, 1081, 1081
-0.747159, -0.348754, 9.701101, 0.021228, 0.071166, -0.002291, 26.074249, 2.645425, -44.314529, -1.304527, 0.025581, 177.245773, 0.028554, 0.003686, 0.001433, 79944, 0.000000, 0.000000, 0.000000, 0.000000, 1.304527, -0.025581, 0.000000, 0, 1086, 1080, 1080, 1086
-0.744766, -0.354736, 9.698709, 0.019090, 0.064904, -0.002749, 26.074249, 2.645425, -44.314529, 0.053517, 0.090900, 177.560196, 0.028555, 0.003685, 0.001433, 79944, 0.000000, 0.000000, 0.000000, 0.000000, -0.053517, -0.090900, -0.000000, 0, 1080, 1080, 1080, 1080
-0.762712, -0.351745, 9.702298, 0.016035, 0.065057, 0.005192, 26.074249, 2.645425, -44.314529, -1.303815, 0.128440, 177.255905, 0.028556, 0.003684, 0.001433, 79916, 0.000000, 0.000000, 0.000000, 0.000000, 1.303815, -0.128440, 0.000000, 0, 1086, 1080, 1080, 1087
-0.747159, -0.357129, 9.660423, 0.014966, 0.070250, -0.001527, 26.074249, 2.645425, -44.314529, 0.050321, 0.026014, 177.574448, 0.028557, 0.003683, 0.001433, 79936, 0.000000, 0.000000, 0.000000, 0.000000, -0.050321, -0.026014, -0.000000, 0, 1080, 1080, 1080, 1080
-0.748954, -0.365504, 9.713664, 0.015730, 0.066432, 0.001833, 26.074249, 2.645425, -44.314529, -1.309534, 0.041649, 177.281158, 0.028558, 0.003682, 0.001433, 79940, 0.000000, 0.000000, 0.000000, 0.000000, 1.309534, -0.041649, 0.000000, 0, 1086, 1080, 1080, 1086
-0.745962, -0.368495, 9.702298, 0.019242, 0.066737, 0.001374, 26.074249, 2.645425, -44.314529, 0.043188, 0.087097, 177.620773, 0.028559, 0.003681, 0.001434, 79936, 0.000000, 0.000000, 0.000000, 0.000000, -0.043188, -0.087097, -0.000000, 0, 1080, 1080, 1080, 1080
-0.734596, -0.353540, 9.702896, 0.015424, 0.061850, 0.001069, 26.074249, 2.645425, -44.314529, -1.309193, -0.038945, 177.316513, 0.028560, 0.003680, 0.001434, 79940, 0.000000, 0.000000, 0.000000, 0.000000, 1.309193, 0.038945, 0.000000, 0, 1086, 1080, 1080, 1086
-0.753739, -0.348754, 9.705289, 0.017868, 0.069639, -0.004276, 26.074249, 2.645425, -44.314529, 0.020152, 0.264405, 177.604385, 0.028561, 0.003679, 0.001434, 79940, 0.000000, 0.000000, 0.000000, 0.000000, -0.020152, -0.264405, -0.000000, 0, 1080, 1080, 1081, 1081
-0.761516, -0.361316, 9.702298, 0.016341, 0.064446, 0.004123, 26.074249, 2.645425, -44.314529, -1.331579, 0.121404, 177.304352, 0.028562, 0.003678, 0.001434, 79932, 0.000000, 0.000000, 0.000000, 0.000000, 1.331579, -0.121404, 0.000000, 0, 1086, 1080, 1080, 1087
-0.742971, -0.363709, 9.692128, 0.016799, 0.071929, 0.001527, 26.074249, 2.645425, -44.314529, 0.014805, -0.057497, 177.622925, 0.028563, 0.003677, 0.001434, 79952, 0.000000, 0.000000, 0.000000, 0.000000, -0.014805, 0.057497, -0.000000, 0, 1080, 1080, 1080, 1080
-0.747757, -0.347558, 9.723235, 0.016646, 0.063835, 0.000916, 26.074249, 2.645425, -44.314529, -1.338447, 0.037799, 177.312073, 0.028564, 0.003676, 0.001434, 79952, 0.000000, 0.000000, 0.000000, 0.000000, 1.338447, -0.037799, 0.000000, 0, 1086, 1080, 1080, 1087
-0.740579, -0.330210, 9.757333, 0.019548, 0.071624, -0.001222, 26.074249, 2.645425, -44.314529, 0.028824, -0.019888, 177.575912, 0.028566, 0.003675, 0.001434, 79936, 0.000000, 0.000000, 0.000000, 0.000000, -0.028824, 0.019888, -0.000000, 0, 1080, 1080, 1080, 1080
-0.747757, -0.364905, 9.680163, 0.017410, 0.061545, 0.000916, 26.074249, 2.645425, -44.314529, -1.329097, 0.049376, 177.283737, 0.028567, 0.003674, 0.001434, 79940, 0.000000, 0.000000, 0.000000, 0.000000, 1.329097, -0.049376, 0.000000, 0, 1086, 1080, 1080, 1087
-0.762712, -0.348156, 9.702896, 0.016799, 0.072082, 0.003665, 26.074249, 2.645425, -44.314529, 0.016263, 0.270730, 177.578598, 0.028568, 0.003673, 0.001434, 79936, 0.000000, 0.000000, 0.000000, 0.000000, -0.016263, -0.270730, -0.000000, 0, 1080, 1080, 1081, 1081
-0.744168, -0.349352, 9.703494, 0.016646, 0.070860, 0.002749, 26.074249, 2.645425, -44.314529, -1.316311, 0.008004, 177.275101, 0.028568, 0.003672, 0.001434, 79940, 0.000000, 0.000000, 0.000000, 0.000000, 1.316311, -0.008004, 0.000000, 0, 1086, 1080, 1080, 1086
-0.733400, -0.352343, 9.680762, 0.016799, 0.066737, -0.001527, 26.074249, 2.645425, -44.314529, 0.044129, -0.019566, 177.580658, 0.028569, 0.003671, 0.001434, 79924, 0.000000, 0.000000, 0.000000, 0.000000, -0.044129, 0.019566, -0.000000, 0, 1080, 1080, 1080, 1080
-0.750150, -0.361914, 9.692128, 0.013134, 0.070555, 0.001833, 26.074249, 2.645425, -44.314529, -1.313269, 0.057956, 177.285568, 0.028571, 0.003670, 0.001434, 79936, 0.000000, 0.000000, 0.000000, 0.000000, 1.313269, -0.057956, 0.000000, 0, 1086, 1080, 1080, 1087
-0.762712, -0.346361, 9.699306, 0.017410, 0.065973, 0.000000, 26.074249, 2.645425, -44.314529, 0.034073, 0.268665, 177.577576, 0.028572, 0.003669, 0.001434, 79944, 0.000000, 0.000000, 0.000000, 0.000000, -0.034073, -0.268665, -0.000000, 0, 1080, 1080, 1081, 1081
-0.742971, -0.331406, 9.693923, 0.016035, 0.062614, 0.003818, 26.074249, 2.645425, -44.314529, -1.292085, -0.012218, 177.259094, 0.028572, 0.003668, 0.001434, 79932, 0.000000, 0.000000, 0.000000, 0.000000, 1.292085, 0.012218, 0.000000, 0, 1086, 1080, 1080, 1086
-0.757927, -0.355932, 9.710074, 0.015577, 0.064752, 0.001680, 26.074249, 2.645425, -44.314529, 0.029031, 0.307368, 177.568558, 0.028573, 0.003668, 0.001434, 79948, 0.000000, 0.000000, 0.000000, 0.000000, -0.029031, -0.307368, -0.000000, 0, 1080, 1080, 1081, 1081
-0.765703, -0.339781, 9.711869, 0.014355, 0.060781, 0.002749, 26.074249, 2.645425, -44.314529, -1.315433, 0.125655, 177.252213, 0.028574, 0.003667, 0.001434, 79932, 0.000000, 0.000000, 0.000000, 0.000000, 1.315433, -0.125655, 0.000000, 0, 1086, 1080, 1080, 1087
-0.765703, -0.355932, 9.693923, 0.016799, 0.068111, 0.001680, 26.074249, 2.645425, -44.314529, 0.038625, 0.247125, 177.568039, 0.028575, 0.003666, 0.001434, 79940, 0.000000, 0.000000, 0.000000, 0.000000, -0.038625, -0.247125, -0.000000, 0, 1080, 1080, 1081, 1081
-0.757927, -0.373879, 9.701101, 0.014355, 0.060170, 0.003818, 26.074249, 2.645425, -44.314529, -1.315880, 0.109572, 177.280121, 0.028576, 0.003665, 0.001434, 79936, 0.000000, 0.000000, 0.000000, 0.000000, 1.315880, -0.109572, 0.000000, 0, 1086, 1080, 1080, 1087
-0.737588, -0.321236, 9.732208, 0.015272, 0.059254, 0.007025, 26.074249, 2.645425, -44.314529, 0.040598, -0.078061, 177.535065, 0.028577, 0.003664, 0.001434, 79948, 0.000000, 0.000000, 0.000000, 0.000000, -0.040598, 0.078061, -0.000000, 0, 1080, 1080, 1080, 1080
-0.751945, -0.356531, 9.726226, 0.018479, 0.068875, -0.004734, 26.074249, 2.645425, -44.314529, -1.311417, 0.057191, 177.238739, 0.028578, 0.003663, 0.001434, 79940, 0.000000, 0.000000, 0.000000, 0.000000, 1.311417, -0.057191, 0.000000, 0, 1086, 1080, 1080, 1086
-0.749552, -0.321835, 9.742976, 0.013592, 0.066737, 0.000153, 26.074249, 2.645425, -44.314529, 0.057045, 0.068328, 177.502625, 0.028579, 0.003661, 0.001434, 79940, 0.000000, 0.000000, 0.000000, 0.000000, -0.057045, -0.068328, -0.000000, 0, 1080, 1080, 1080, 1080
-0.748355, -0.357727, 9.713066, 0.011148, 0.070708, 0.002749, 26.074249, 2.645425, -44.314529, -1.302610, 0.039643, 177.207733, 0.028580, 0.003660, 0.001434, 79936, 0.000000, 0.000000, 0.000000, 0.000000, 1.302610, -0.039643, 0.000000, 0, 1086, 1080, 1080, 1086
-0.769292, -0.331406, 9.704691, 0.017562, 0.071777, -0.002443, 26.074249, 2.645425, -44.314529, 0.034078, 0.324084, 177.485352, 0.028581, 0.003660, 0.001434, 79940, 0.000000, 0.000000, 0.000000, 0.000000, -0.034078, -0.324084, -0.000000, 0, 1080, 1080, 1081, 1081
-0.745962, -0.333201, 9.697513, 0.014966, 0.071166, -0.000305, 26.074249, 2.645425, -44.314529, -1.284347, 0.000896, 177.175995, 0.028582, 0.003659, 0.001434, 79956, 0.000000, 0.000000, 0.000000, 0.000000, 1.284347, -0.000896, 0.000000, 0, 1086, 1080, 1080, 1086
-0.750748, -0.336790, 9.725029, 0.018173, 0.070250, -0.002138, 26.074249, 2.645425, -44.314529, 0.070938, 0.153022, 177.466949, 0.028583, 0.003658, 0.001434, 79908, 0.000000, 0.000000, 0.000000, 0.000000, -0.070938, -0.153022, -0.000000, 0, 1080, 1080, 1081, 1080
-0.751346, -0.337986, 9.714860, 0.019548, 0.065210, 0.001069, 26.074249, 2.645425, -44.314529, -1.282101, 0.048069, 177.157303, 0.028584, 0.003657, 0.001434, 79940, 0.000000, 0.000000, 0.000000, 0.000000, 1.282101, -0.048069, 0.000000, 0, 1086, 1080, 1080, 1086
-0.741775, -0.378066, 9.708879, 0.018479, 0.060170, 0.004123, 26.074249, 2.645425, -44.314529, 0.057626, -0.001346, 177.549133, 0.028585, 0.003656, 0.001435, 79936, 0.000000, 0.000000, 0.000000, 0.000000, -0.057626, 0.001346, -0.000000, 0, 1080, 1080, 1080, 1080
-0.743570, -0.358923, 9.718449, 0.016952, 0.059407, 0.001069, 26.074249, 2.645425, -44.314529, -1.301834, 0.007879, 177.252838, 0.028586, 0.003655, 0.001435, 79956, 0.000000, 0.000000, 0.000000, 0.000000, 1.301834, -0.007879, 0.000000, 0, 1086, 1080, 1080, 1086
-0.749552, -0.363709, 9.692726, 0.013134, 0.060476, 0.007025, 26.074249, 2.645425, -44.314529, 0.039119, 0.199548, 177.585739, 0.028587, 0.003654, 0.001435, 79936, 0.000000, 0.000000, 0.000000, 0.000000, -0.039119, -0.199548, -0.000000, 0, 1080, 1080, 1081, 1080
-0.745962, -0.364905, 9.692726, 0.019395, 0.067959, -0.003512, 26.074249, 2.645425, -44.314529, -1.311387, 0.039997, 177.291519, 0.028588, 0.003653, 0.001435, 79936, 0.000000, 0.000000, 0.000000, 0.000000, 1.311387, -0.039997, 0.000000, 0, 1086, 1080, 1080, 1086
-0.753739, -0.355334, 9.706486, 0.014203, 0.069639, 0.002596, 26.074249, 2.645425, -44.314529, 0.041150, 0.184015, 177.599442, 0.028589, 0.003652, 0.001435, 79936, 0.000000, 0.000000, 0.000000, 0.000000, -0.041150, -0.184015, -0.000000, 0, 1080, 1080, 1081, 1080
-0.750150, -0.342174, 9.707084, 0.013439, 0.070555, -0.001222, 26.074249, 2.645425, -44.314529, -1.308425, 0.043656, 177.284485, 0.028590, 0.003651, 0.001435, 79940, 0.000000, 0.000000, 0.000000, 0.000000, 1.308425, -0.043656, 0.000000, 0, 1086, 1080, 1080, 1086
-0.732802, -0.351745, 9.720841, 0.016646, 0.063835, 0.001680, 26.074249, 2.645425, -44.314529, 0.044883, -0.109697, 177.582275, 0.028591, 0.003650, 0.001435, 79940, 0.000000, 0.000000, 0.000000, 0.000000, -0.044883, 0.109697, -0.000000, 0, 1080, 1080, 1080, 1080
-0.748954, -0.366102, 9.724431, 0.017562, 0.069639, -0.002596, 26.074249, 2.645425, -44.314529, -1.307151, 0.032776, 177.291443, 0.028592, 0.003649, 0.001435, 79928, 0.000000, 0.000000, 0.000000, 0.000000, 1.307151, -0.032776, 0.000000, 0, 1086, 1080, 1080, 1086
-0.739980, -0.363709, 9.732208, 0.016952, 0.070860, 0.002138, 26.074249, 2.645425, -44.314529, 0.048692, -0.022226, 177.614380, 0.028593, 0.003648, 0.001435, 79940, 0.000000, 0.000000, 0.000000, 0.000000, -0.048692, 0.022226, -0.000000, 0, 1080, 1080, 1080, 1080
-0.746561, -0.352343, 9.723833, 0.012217, 0.067042, 0.007636, 26.074249, 2.645425, -44.314529, -1.308372, 0.024133, 177.308807, 0.028594, 0.003647, 0.001435, 79936, 0.000000, 0.000000, 0.000000, 0.000000, 1.308372, -0.024133, 0.000000, 0, 1086, 1080, 1080, 1086
-0.745364, -0.343370, 9.723235, 0.016952, 0.062766, 0.002596, 26.074249, 2.645425, -44.314529, 0.056130, 0.070446, 177.593018, 0.028595, 0.003645, 0.001435, 79964, 0.000000, 0.000000, 0.000000, 0.000000, -0.056130, -0.070446, -0.000000, 0, 1080, 1080, 1080, 1080
-0.762114, -0.345763, 9.711869, 0.018326, 0.066126, 0.000916, 26.074249, 2.645425, -44.314529, -1.299342, 0.121446, 177.281113, 0.028596, 0.003644, 0.001436, 79916, 0.000000, 0.000000, 0.000000, 0.000000, 1.299342, -0.121446, 0.000000, 0, 1086, 1080, 1080, 1087
-0.756132, -0.374477, 9.702896, 0.015424, 0.066126, 0.001222, 26.074249, 2.645425, -44.314529, 0.048859, 0.111084, 177.638153, 0.028597, 0.003643, 0.001436, 79936, 0.000000, 0.000000, 0.000000, 0.000000, -0.048859, -0.111084, -0.000000, 0, 1080, 1080, 1080, 1080
-0.766900, -0.360718, 9.658628, 0.015882, 0.061545, 0.004123, 26.074249, 2.645425, -44.314529, -1.308911, 0.169803, 177.336716, 0.028598, 0.003642, 0.001436, 79940, 0.000000, 0.000000, 0.000000, 0.000000, 1.308911, -0.169803, 0.000000, 0, 1085, 1080, 1080, 1087
-0.759721, -0.340977, 9.687343, 0.013592, 0.064294, 0.000000, 26.074249, 2.645425, -44.314529, 0.055892, 0.122262, 177.614334, 0.028600, 0.003641, 0.001436, 79940, 0.000000, 0.000000, 0.000000, 0.000000, -0.055892, -0.122262, -0.000000, 0, 1080, 1080, 1080, 1080
-0.753739, -0.380459, 9.696914, 0.012370, 0.064599, 0.004581, 26.074249, 2.645425, -44.314529, -1.305346, 0.081841, 177.328552, 0.028601, 0.003640, 0.001436, 79940, 0.000000, 0.000000, 0.000000, 0.000000, 1.305346, -0.081841, 0.000000, 0, 1086, 1080, 1080, 1087
-0.748355, -0.361316, 9.689735, 0.017257, 0.066584, 0.002443, 26.074249, 2.645425, -44.314529, 0.052750, 0.073144, 177.644760, 0.028602, 0.003639, 0.001436, 79944, 0.000000, 0.000000, 0.000000, 0.000000, -0.052750, -0.073144, -0.000000, 0, 1080, 1080, 1080, 1080
-0.764507, -0.351745, 9.705888, 0.015730, 0.062003, 0.000458, 26.074249, 2.645425, -44.314529, -1.303280, 0.136081, 177.334610, 0.028603, 0.003638, 0.001436, 79940, 0.000000, 0.000000, 0.000000, 0.000000, 1.303280, -0.136081, 0.000000, 0, 1085, 1080, 1080, 1087
-0.757927, -0.336192, 9.691529, 0.018937, 0.068722, 0.001374, 26.074249, 2.645425, -44.314529, 0.063776, 0.133268, 177.605896, 0.028604, 0.003637, 0.001436, 79936, 0.000000, 0.000000, 0.000000, 0.000000, -0.063776, -0.133268, -0.000000, 0, 1080, 1080, 1081, 1080
-0.766900, -0.345763, 9.696914, 0.019242, 0.067195, 0.002749, 26.074249, 2.645425, -44.314529, -1.292979, 0.154724, 177.292603, 0.028605, 0.003635, 0.001436, 79944, 0.000000, 0.000000, 0.000000, 0.000000, 1.292979, -0.154724, 0.000000, 0, 1085, 1080, 1080, 1087
-0.751346, -0.357727, 9.702896, 0.018021, 0.070860, 0.002443, 26.074249, 2.645425, -44.314529, 0.056971, -0.003063, 177.602585, 0.028606, 0.003634, 0.001436, 79932, 0.000000, 0.000000, 0.000000, 0.000000, -0.056971, 0.003063, -0.000000, 0, 1080, 1080, 1080, 1080
-0.759123, -0.335593, 9.714860, 0.013286, 0.060934, 0.004734, 26.074249, 2.645425, -44.314529, -1.293837, 0.108859, 177.282364, 0.028607, 0.003633, 0.001436, 79948, 0.000000, 0.000000, 0.000000, 0.000000, 1.293837, -0.108859, 0.000000, 0, 1086, 1080, 1080, 1087
-0.756730, -0.348754, 9.705888, 0.013592, 0.069944, -0.001069, 26.074249, 2.645425, -44.314529, 0.067736, 0.136052, 177.579987, 0.028608, 0.003632, 0.001436, 79928, 0.000000, 0.000000, 0.000000, 0.000000, -0.067736, -0.136052, -0.000000, 0, 1080, 1080, 1081, 1080
-0.765105, -0.366700, 9.722038, 0.018479, 0.071166, -0.005498, 26.074249, 2.645425, -44.314529, -1.292232, 0.132834, 177.284195, 0.028609, 0.003631, 0.001436, 79936, 0.000000, 0.000000, 0.000000, 0.000000, 1.292232, -0.132834, 0.000000, 0, 1085, 1080, 1080, 1087
-0.744168, -0.350549, 9.722636, 0.009468, 0.069944, 0.001222, 26.074249, 2.645425, -44.314529, 0.053252, -0.076667, 177.577881, 0.028610, 0.003630, 0.001436, 79940, 0.000000, 0.000000, 0.000000, 0.000000, -0.053252, 0.076667, -0.000000, 0, 1080, 1080, 1080, 1080
-0.768694, -0.362513, 9.684351, 0.012370, 0.062766, 0.004429, 26.074249, 2.645425, -44.314529, -1.285917, 0.160430, 177.287338, 0.028611, 0.003629, 0.001436, 79940, 0.000000, 0.000000, 0.000000, 0.000000, 1.285917, -0.160430, 0.000000, 0, 1085, 1080, 1080, 1087
-0.765105, -0.353540, 9.730413, 0.016341, 0.066126, 0.000305, 26.074249, 2.645425, -44.314529, 0.074695, 0.155453, 177.591507, 0.028612, 0.003628, 0.001436, 79936, 0.000000, 0.000000, 0.000000, 0.000000, -0.074695, -0.155453, -0.000000, 0, 1080, 1080, 1081, 1080
-0.762114, -0.352343, 9.736994, 0.017715, 0.071013, -0.000305, 26.074249, 2.645425, -44.314529, -1.282646, 0.108133, 177.283936, 0.028613, 0.003627, 0.001436, 79944, 0.000000, 0.000000, 0.000000, 0.000000, 1.282646, -0.108133, 0.000000, 0, 1086, 1080, 1080, 1087
-0.734596, -0.360120, 9.739387, 0.018173, 0.067959, 0.000611, 26.074249, 2.645425, -44.314529, 0.036073, -0.219551, 177.589142, 0.028614, 0.003627, 0.001436, 79932, 0.000000, 0.000000, 0.000000, 0.000000, -0.036073, 0.219551, -0.000000, 0, 1080, 1081, 1080, 1080
-0.772283, -0.343968, 9.738190, 0.016799, 0.066737, 0.002596, 26.074249, 2.645425, -44.314529, -1.260675, 0.181044, 177.290405, 0.028614, 0.003626, 0.001436, 79944, 0.000000, 0.000000, 0.000000, 0.000000, 1.260675, -0.181044, 0.000000, 0, 1085, 1080, 1080, 1087
-0.763909, -0.346959, 9.722038, 0.015272, 0.060323, 0.002749, 26.074249, 2.645425, -44.314529, 0.100313, 0.118752, 177.581833, 0.028615, 0.003625, 0.001437, 79936, 0.000000, 0.000000, 0.000000, 0.000000, -0.100313, -0.118752, -0.000000, 0, 1080, 1080, 1081, 1080
-0.744168, -0.376870, 9.711270, 0.014661, 0.064752, 0.002749, 26.074249, 2.645425, -44.314529, -1.258422, 0.026524, 177.296005, 0.028616, 0.003624, 0.001436, 79948, 0.000000, 0.000000, 0.000000, 0.000000, 1.258422, -0.026524, 0.000000, 0, 1086, 1080, 1080, 1086
-0.752543, -0.340977, 9.687343, 0.014203, 0.063225, 0.002138, 26.074249, 2.645425, -44.314529, 0.094101, 0.201976, 177.578568, 0.028617, 0.003623, 0.001436, 79944, 0.000000, 0.000000, 0.000000, 0.000000, -0.094101, -0.201976, -0.000000, 0, 1080, 1080, 1081, 1080
-0.764507, -0.363111, 9.716056, 0.017868, 0.066279, 0.001222, 26.074249, 2.645425, -44.314529, -1.264085, 0.135588, 177.280609, 0.028619, 0.003622, 0.001437, 79932, 0.000000, 0.000000, 0.000000, 0.000000, 1.264085, -0.135588, 0.000000, 0, 1085, 1080, 1080, 1087
-0.754936, -0.346959, 9.687343, 0.016799, 0.069180, -0.039095, 26.074249, 2.645425, -44.314529, 0.096925, 0.094983, 177.572876, 0.028620, 0.003621, 0.001437, 79936, 0.000000, 0.000000, 0.000000, 0.000000, -0.096925, -0.094983, -0.000000, 0, 1080, 1080, 1080, 1080
-0.745364, -0.354736, 9.704092, 0.017257, 0.066126, 0.003360, 26.074249, 2.645425, -44.314529, -1.260364, 0.026814, 177.271713, 0.028621, 0.003620, 0.001437, 79944, 0.000000, 0.000000, 0.000000, 0.000000, 1.260364, -0.026814, 0.000000, 0, 1086, 1080, 1080, 1086
-0.759123, -0.367298, 9.713066, 0.020769, 0.066890, -0.000458, 26.074249, 2.645425, -44.314529, 0.057129, 0.325697, 177.609573, 0.028621, 0.003619, 0.001437, 79936, 0.000000, 0.000000, 0.000000, 0.000000, -0.057129, -0.325697, -0.000000, 0, 1080, 1080, 1081, 1081
-0.751346, -0.363111, 9.698709, 0.018937, 0.063683, 0.003054, 26.074249, 2.645425, -44.314529, -1.280344, 0.077189, 177.314011, 0.028622, 0.003619, 0.001437, 79956, 0.000000, 0.000000, 0.000000, 0.000000, 1.280344, -0.077189, 0.000000, 0, 1086, 1080, 1080, 1086
-0.756132, -0.360120, 9.688539, 0.014966, 0.060781, 0.004276, 26.074249, 2.645425, -44.314529, 0.070306, 0.201125, 177.631714, 0.028623, 0.003618, 0.001437, 79916, 0.000000, 0.000000, 0.000000, 0.000000, -0.070306, -0.201125, -0.000000, 0, 1080, 1080, 1081, 1080
-0.754337, -0.348156, 9.697513, 0.015119, 0.068111, -0.002749, 26.074249, 2.645425, -44.314529, -1.281978, 0.079809, 177.319839, 0.028624, 0.003617, 0.001437, 79940, 0.000000, 0.000000, 0.000000, 0.000000, 1.281978, -0.079809, 0.000000, 0, 1086, 1080, 1080, 1086
-0.763310, -0.339781, 9.687343, 0.018173, 0.072540, -0.001680, 26.074249, 2.645425, -44.314529, 0.070430, 0.268089, 177.597046, 0.028625, 0.003616, 0.001437, 79936, 0.000000, 0.000000, 0.000000, 0.000000, -0.070430, -0.268089, -0.000000, 0, 1080, 1080, 1081, 1081
-0.755534, -0.328415, 9.694521, 0.014203, 0.060476, 0.003207, 26.074249, 2.645425, -44.314529, -1.270411, 0.071655, 177.271057, 0.028626, 0.003615, 0.001437, 79940, 0.000000, 0.000000, 0.000000, 0.000000, 1.270411, -0.071655, 0.000000, 0, 1086, 1080, 1080, 1086
-0.766301, -0.345763, 9.697513, 0.018784, 0.067959, -0.004887, 26.074249, 2.645425, -44.314529, 0.069720, 0.317683, 177.563095, 0.028627, 0.003614, 0.001437, 79936, 0.000000, 0.000000, 0.000000, 0.000000, -0.069720, -0.317683, -0.000000, 0, 1080, 1080, 1081, 1081
-0.761516, -0.360120, 9.690931, 0.014661, 0.057574, 0.003360, 26.074249, 2.645425, -44.314529, -1.278126, 0.133466, 177.265701, 0.028628, 0.003613, 0.001437, 79940, 0.000000, 0.000000, 0.000000, 0.000000, 1.278126, -0.133466, 0.000000, 0, 1085, 1080, 1080, 1087
-0.761516, -0.333799, 9.719048, 0.015424, 0.066737, 0.006720, 26.074249, 2.645425, -44.314529, 0.088061, 0.153375, 177.541702, 0.028629, 0.003612, 0.001437, 79940, 0.000000, 0.000000, 0.000000, 0.000000, -0.088061, -0.153375, -0.000000, 0, 1080, 1080, 1081, 1080
-0.753739, -0.355932, 9.699306, 0.012828, 0.064752, 0.001374, 26.074249, 2.645425, -44.314529, -1.269612, 0.078199, 177.242264, 0.028630, 0.003611, 0.001437, 79940, 0.000000, 0.000000, 0.000000, 0.000000, 1.269612, -0.078199, 0.000000, 0, 1086, 1080, 1080, 1086
-0.733998, -0.349950, 9.716056, 0.014508, 0.065363, 0.001069, 26.074249, 2.645425, -44.314529, 0.073059, -0.142887, 177.541489, 0.028631, 0.003610, 0.001437, 79936, 0.000000, 0.000000, 0.000000, 0.000000, -0.073059, 0.142887, -0.000000, 0, 1080, 1081, 1080, 1080
-0.753739, -0.355932, 9.731011, 0.013439, 0.065057, 0.002749, 26.074249, 2.645425, -44.314529, -1.271337, 0.058327, 177.247360, 0.028632, 0.003609, 0.001437, 79948, 0.000000, 0.000000, 0.000000, 0.000000, 1.271337, -0.058327, 0.000000, 0, 1086, 1080, 1080, 1086
-0.912862, -0.354138, 9.689137, 0.020617, 0.065515, 0.037568, 26.074249, 2.645425, -44.314529, -0.604725, 1.253088, 177.411407, 0.028625, 0.003616, 0.001437, 79936, 0.000000, 0.000000, 0.000000, 0.000000, 0.604725, -1.253088, -0.000000, 0, 1080, 1080, 1083, 1089
-0.750150, -0.341575, 9.695119, 0.016952, 0.066584, -0.000916, 26.074249, 2.645425, -44.314529, -0.999091, -0.055983, 177.305618, 0.028617, 0.003624, 0.001436, 79940, 0.000000, 0.000000, 0.000000, 0.000000, 0.999091, 0.055983, 0.000000, 0, 1085, 1080, 1080, 1084
-0.742373, -0.361316, 9.719048, 0.020006, 0.064141, 0.001374, 26.074249, 2.645425, -44.314529, 0.053538, 0.624351, 177.637329, 0.028615, 0.003625, 0.001437, 79956, 0.000000, 0.000000, 0.000000, 0.000000, -0.053538, -0.624351, -0.000000, 0, 1080, 1080, 1083, 1082
-0.747159, -0.356531, 9.716654, 0.014355, 0.052840, 0.007025, 26.074249, 2.645425, -44.314529, -1.196547, 0.085616, 177.351471, 0.028614, 0.003626, 0.001437, 79920, 0.000000, 0.000000, 0.000000, 0.000000, 1.196547, -0.085616, 0.000000, 0, 1085, 1080, 1080, 1086
-0.758525, -0.360120, 9.707084, 0.014661, 0.064752, 0.000153, 26.074249, 2.645425, -44.314529, 0.146610, 0.231647, 177.665176, 0.028615, 0.003625, 0.001437, 79940, 0.000000, 0.000000, 0.000000, 0.000000, -0.146610, -0.231647, -0.000000, 0, 1080, 1080, 1081, 1080
-0.735195, -0.353540, 9.726226, 0.013134, 0.063988, 0.004276, 26.074249, 2.645425, -44.314529, -1.189191, -0.018856, 177.361542, 0.028616, 0.003624, 0.001437, 79932, 0.000000, 0.000000, 0.000000, 0.000000, 1.189191, 0.018856, 0.000000, 0, 1086, 1080, 1080, 1085
-0.746561, -0.350549, 9.719048, 0.013439, 0.062614, 0.004429, 26.074249, 2.645425, -44.314529, 0.151446, 0.199181, 177.646866, 0.028617, 0.003623, 0.001437, 79944, 0.000000, 0.000000, 0.000000, 0.000000, -0.151446, -0.199181, -0.000000, 0, 1080, 1080, 1081, 1080
-0.759123, -0.361914, 9.714262, 0.014966, 0.067348, 0.003207, 26.074249, 2.645425, -44.314529, -1.205437, 0.110225, 177.345108, 0.028618, 0.003622, 0.001437, 79936, 0.000000, 0.000000, 0.000000, 0.000000, 1.205437, -0.110225, 0.000000, 0, 1085, 1080, 1080, 1086
-0.745364, -0.362513, 9.676575, 0.014813, 0.069028, 0.004429, 26.074249, 2.645425, -44.314529, 0.135596, -0.046787, 177.666977, 0.028619, 0.003621, 0.001437, 79936, 0.000000, 0.000000, 0.000000, 0.000000, -0.135596, 0.046787, -0.000000, 0, 1080, 1080, 1080, 1080
-0.739980, -0.338584, 9.729815, 0.016799, 0.069639, 0.000611, 26.074249, 2.645425, -44.314529, -1.219988, -0.021037, 177.347733, 0.028620, 0.003620, 0.001437, 79944, 0.000000, 0.000000, 0.000000, 0.000000, 1.219988, 0.021037, 0.000000, 0, 1086, 1080, 1080, 1086
-0.749552, -0.345165, 9.699306, 0.015272, 0.063683, 0.002749, 26.074249, 2.645425, -44.314529, 0.116534, 0.241820, 177.625443, 0.028620, 0.003619, 0.001437, 79940, 0.000000, 0.000000, 0.000000, 0.000000, -0.116534, -0.241820, -0.000000, 0, 1080, 1080, 1081, 1080
-0.748954, -0.352941, 9.713066, 0.016341, 0.069333, 0.000916, 26.074249, 2.645425, -44.314529, -1.229108, 0.053392, 177.320145, 0.028621, 0.003618, 0.001437, 79936, 0.000000, 0.000000, 0.000000, 0.000000, 1.229108, -0.053392, 0.000000, 0, 1086, 1080, 1080, 1086
-0.750150, -0.352941, 9.690333, 0.015272, 0.062156, 0.002596, 26.074249, 2.645425, -44.314529, 0.125449, 0.149719, 177.622620, 0.028622, 0.003617, 0.001437, 79936, 0.000000, 0.000000, 0.000000, 0.000000, -0.125449, -0.149719, -0.000000, 0, 1080, 1080, 1081, 1080
-0.737588, -0.351147, 9.712467, 0.017715, 0.066584, 0.004123, 26.074249, 2.645425, -44.314529, -1.222894, -0.015346, 177.317474, 0.028623, 0.003616, 0.001437, 79940, 0.000000, 0.000000, 0.000000, 0.000000, 1.222894, 0.015346, 0.000000, 0, 1086, 1080, 1080, 1086
-0.620339, -0.352941, 9.695119, 0.019395, 0.066584, -0.000153, 26.074249, 2.645425, -44.314529, -0.421954, -1.122809, 177.488098, 0.028618, 0.003622, 0.001437, 79948, 0.000000, 0.000000, 0.000000, 0.000000, 0.421954, 1.122809, -0.000000, 0, 1087, 1083, 1080, 1080
-0.754936, -0.349352, 9.695119, 0.016493, 0.069333, -0.003054, 26.074249, 2.645425, -44.314529, -1.043303, 0.096513, 177.354721, 0.028611, 0.003628, 0.001437, 79936, 0.000000, 0.000000, 0.000000, 0.000000, 1.043303, -0.096513, 0.000000, 0, 1084, 1080, 1080, 1085
-0.761516, -0.354138, 9.705289, 0.018479, 0.065057, -0.002596, 26.074249, 2.645425, -44.314529, 0.242749, 0.383716, 177.647034, 0.028611, 0.003628, 0.001437, 79936, 0.000000, 0.000000, 0.000000, 0.000000, -0.242749, -0.383716, -0.000000, 0, 1080, 1080, 1083, 1080
-0.754337, -0.342174, 9.708879, 0.018784, 0.067501, -0.001527, 26.074249, 2.645425, -44.314529, -1.088979, 0.115296, 177.335388, 0.028612, 0.003627, 0.001437, 79940, 0.000000, 0.000000, 0.000000, 0.000000, 1.088979, -0.115296, 0.000000, 0, 1084, 1080, 1080, 1086
-0.757328, -0.363709, 9.696914, 0.018479, 0.075595, 0.000764, 26.074249, 2.645425, -44.314529, 0.223702, 0.168837, 177.684937, 0.028613, 0.003626, 0.001437, 79936, 0.000000, 0.000000, 0.000000, 0.000000, -0.223702, -0.168837, -0.000000, 0, 1080, 1080, 1082, 1080
-0.751945, -0.335593, 9.708879, 0.012370, 0.058185, 0.005040, 26.074249, 2.645425, -44.314529, -1.129337, 0.065961, 177.363373, 0.028614, 0.003625, 0.001437, 79944, 0.000000, 0.000000, 0.000000, 0.000000, 1.129337, -0.065961, 0.000000, 0, 1085, 1080, 1080, 1086
-0.730409, -0.330808, 9.701101, 0.015119, 0.064904, -0.001069, 26.074249, 2.645425, -44.314529, 0.206578, -0.218704, 177.597412, 0.028614, 0.003624, 0.001437, 79932, 0.000000, 0.000000, 0.000000, 0.000000, -0.206578, 0.218704, -0.000000, 0, 1080, 1082, 1080, 1080
-0.764507, -0.365504, 9.736994, 0.018021, 0.074526, 0.037415, 26.074249, 2.645425, -44.314529, -1.125208, 0.059546, 177.313538, 0.028615, 0.003623, 0.001437, 79944, 0.000000, 0.000000, 0.000000, 0.000000, 1.125208, -0.059546, 0.000000, 0, 1085, 1080, 1080, 1086
-0.763310, -0.352343, 9.715458, 0.016952, 0.067653, 0.000000, 26.074249, 2.645425, -44.314529, 0.178783, 0.404729, 177.609238, 0.028615, 0.003623, 0.001437, 79932, 0.000000, 0.000000, 0.000000, 0.000000, -0.178783, -0.404729, -0.000000, 0, 1080, 1080, 1082, 1081
-0.753141, -0.349352, 9.713066, 0.018326, 0.064599, -0.001527, 26.074249, 2.645425, -44.314529, -1.146867, 0.103317, 177.305298, 0.028616, 0.003622, 0.001437, 79940, 0.000000, 0.000000, 0.000000, 0.000000, 1.146867, -0.103317, 0.000000, 0, 1085, 1080, 1080, 1086
-0.742971, -0.334397, 9.695717, 0.016646, 0.067653, -0.000764, 26.074249, 2.645425, -44.314529, 0.206306, -0.066476, 177.564743, 0.028617, 0.003621, 0.001437, 79936, 0.000000, 0.000000, 0.000000, 0.000000, -0.206306, 0.066476, -0.000000, 0, 1080, 1081, 1080, 1080
-0.757927, -0.363709, 9.710074, 0.015730, 0.066737, 0.000000, 26.074249, 2.645425, -44.314529, -1.147793, 0.067059, 177.272964, 0.028618, 0.003620, 0.001437, 79940, 0.000000, 0.000000, 0.000000, 0.000000, 1.147793, -0.067059, 0.000000, 0, 1085, 1080, 1080, 1086
-0.753141, -0.357129, 9.699306, 0.016646, 0.066279, 0.000458, 26.074249, 2.645425, -44.314529, 0.192258, 0.192042, 177.600800, 0.028619, 0.003619, 0.001437, 79936, 0.000000, 0.000000, 0.000000, 0.000000, -0.192258, -0.192042, -0.000000, 0, 1080, 1080, 1081, 1080
-0.753739, -0.333799, 9.703494, 0.015882, 0.061697, 0.002443, 26.074249, 2.645425, -44.314529, -1.159848, 0.076365, 177.281570, 0.028620, 0.003618, 0.001437, 79952, 0.000000, 0.000000, 0.000000, 0.000000, 1.159848, -0.076365, 0.000000, 0, 1085, 1080, 1080, 1086
-0.748954, -0.337388, 9.713664, 0.012065, 0.064599, 0.003665, 26.074249, 2.645425, -44.314529, 0.202012, 0.058917, 177.555237, 0.028621, 0.003617, 0.001437, 79932, 0.000000, 0.000000, 0.000000, 0.000000, -0.202012, -0.058917, -0.000000, 0, 1080, 1080, 1081, 1080
-0.774676, -0.351745, 9.686147, 0.012828, 0.064752, -0.001985, 26.074249, 2.645425, -44.314529, -1.152055, 0.184153, 177.253342, 0.028622, 0.003616, 0.001437, 79944, 0.000000, 0.000000, 0.000000, 0.000000, 1.152055, -0.184153, 0.000000, 0, 1084, 1080, 1080, 1086
-0.745364, -0.349950, 9.676575, 0.011454, 0.062308, 0.005040, 26.074249, 2.645425, -44.314529, 0.147748, -0.199965, 177.548843, 0.028622, 0.003616, 0.001437, 79936, 0.000000, 0.000000, 0.000000, 0.000000, -0.147748, 0.199965, -0.000000, 0, 1080, 1081, 1080, 1080
-0.753141, -0.350549, 9.690931, 0.017410, 0.064904, 0.002138, 26.074249, 2.645425, -44.314529, -1.187476, 0.053057, 177.254242, 0.028623, 0.003615, 0.001437, 79940, 0.000000, 0.000000, 0.000000, 0.000000, 1.187476, -0.053057, 0.000000, 0, 1085, 1080, 1080, 1086
-0.748355, -0.355932, 9.692726, 0.018479, 0.059712, 0.001527, 26.074249, 2.645425, -44.314529, 0.162359, 0.126307, 177.579361, 0.028624, 0.003614, 0.001437, 79940, 0.000000, 0.000000, 0.000000, 0.000000, -0.162359, -0.126307, -0.000000, 0, 1080, 1080, 1081, 1080
-0.742971, -0.354138, 9.736994, 0.019548, 0.069791, -0.002291, 26.074249, 2.645425, -44.314529, -1.191351, 0.006142, 177.277313, 0.028625, 0.003613, 0.001437, 79940, 0.000000, 0.000000, 0.000000, 0.000000, 1.191351, -0.006142, 0.000000, 0, 1086, 1080, 1080, 1086
-0.750150, -0.345763, 9.710074, 0.017104, 0.061392, 0.002138, 26.074249, 2.645425, -44.314529, 0.153286, 0.206956, 177.569443, 0.028626, 0.003612, 0.001437, 79944, 0.000000, 0.000000, 0.000000, 0.000000, -0.153286, -0.206956, -0.000000, 0, 1080, 1080, 1081, 1080
-0.747757, -0.342772, 9.692726, 0.017410, 0.058490, 0.001833, 26.074249, 2.645425, -44.314529, -1.195670, 0.049544, 177.260132, 0.028627, 0.003611, 0.001437, 79936, 0.000000, 0.000000, 0.000000, 0.000000, 1.195670, -0.049544, 0.000000, 0, 1085, 1080, 1080, 1086
-0.745364, -0.345763, 9.705888, 0.015577, 0.063225, 0.000000, 26.074249, 2.645425, -44.314529, 0.163508, 0.058961, 177.556534, 0.028628, 0.003610, 0.001437, 79928, 0.000000, 0.000000, 0.000000, 0.000000, -0.163508, -0.058961, -0.000000, 0, 1080, 1080, 1081, 1080
-0.759721, -0.339183, 9.666406, 0.016646, 0.070860, -0.002902, 26.074249, 2.645425, -44.314529, -1.192580, 0.121374, 177.244568, 0.028629, 0.003609, 0.001437, 79936, 0.000000, 0.000000, 0.000000, 0.000000, 1.192580, -0.121374, 0.000000, 0, 1085, 1080, 1080, 1086
-0.767498, -0.357129, 9.677772, 0.014966, 0.067348, -0.000764, 26.074249, 2.645425, -44.314529, 0.136782, 0.356596, 177.572708, 0.028630, 0.003608, 0.001438, 79936, 0.000000, 0.000000, 0.000000, 0.000000, -0.136782, -0.356596, -0.000000, 0, 1080, 1080, 1082, 1081
-0.748355, -0.336790, 9.696914, 0.017715, 0.063530, 0.000000, 26.074249, 2.645425, -44.314529, -1.186851, 0.053396, 177.261765, 0.028630, 0.003608, 0.001438, 79944, 0.000000, 0.000000, 0.000000, 0.000000, 1.186851, -0.053396, 0.000000, 0, 1085, 1080, 1080, 1086
-0.736391, -0.355932, 9.698709, 0.016035, 0.073304, -0.002291, 26.074249, 2.645425, -44.314529, 0.156629, -0.106620, 177.580307, 0.028631, 0.003607, 0.001438, 79940, 0.000000, 0.000000, 0.000000, 0.000000, -0.156629, 0.106620, -0.000000, 0, 1080, 1081, 1080, 1080
-0.752543, -0.352941, 9.708879, 0.014813, 0.063377, -0.001527, 26.074249, 2.645425, -44.314529, -1.193608, 0.047368, 177.280762, 0.028632, 0.003606, 0.001438, 79936, 0.000000, 0.000000, 0.000000, 0.000000, 1.193608, -0.047368, 0.000000, 0, 1085, 1080, 1080, 1086
-0.736989, -0.365504, 9.662218, 0.013286, 0.065821, -0.002443, 26.074249, 2.645425, -44.314529, 0.146090, -0.044693, 177.632706, 0.028633, 0.003605, 0.001438, 79940, 0.000000, 0.000000, 0.000000, 0.000000, -0.146090, 0.044693, -0.000000, 0, 1080, 1080, 1080, 1080
-0.774676, -0.340379, 9.673584, 0.018631, 0.072082, -0.002443, 26.074249, 2.645425, -44.314529, -1.189517, 0.195342, 177.321228, 0.028634, 0.003604, 0.001438, 79940, 0.000000, 0.000000, 0.000000, 0.000000, 1.189517, -0.195342, 0.000000, 0, 1085, 1080, 1080, 1087
-0.746561, -0.347558, 9.696316, 0.016952, 0.063072, 0.002902, 26.074249, 2.645425, -44.314529, 0.118803, -0.180284, 177.595413, 0.028634, 0.003604, 0.001438, 79932, 0.000000, 0.000000, 0.000000, 0.000000, -0.118803, 0.180284, -0.000000, 0, 1080, 1081, 1080, 1080
-0.748355, -0.346361, 9.694521, 0.013592, 0.063530, 0.004276, 26.074249, 2.645425, -44.314529, -1.221941, 0.036578, 177.292847, 0.028635, 0.003603, 0.001438, 79952, 0.000000, 0.000000, 0.000000, 0.000000, 1.221941, -0.036578, 0.000000, 0, 1086, 1080, 1080, 1086
-0.732204, -0.349352, 9.699306, 0.016799, 0.071471, -0.000611, 26.074249, 2.645425, -44.314529, 0.129153, -0.118372, 177.587570, 0.028636, 0.003602, 0.001438, 79940, 0.000000, 0.000000, 0.000000, 0.000000, -0.129153, 0.118372, -0.000000, 0, 1080, 1081, 1080, 1080
-0.757328, -0.370888, 9.692726, 0.017257, 0.068570, 0.001222, 26.074249, 2.645425, -44.314529, -1.218606, 0.070311, 177.301758, 0.028637, 0.003601, 0.001438, 79940, 0.000000, 0.000000, 0.000000, 0.000000, 1.218606, -0.070311, 0.000000, 0, 1085, 1080, 1080, 1086
-0.747757, -0.356531, 9.689137, 0.021228, 0.067806, 0.000000, 26.074249, 2.645425, -44.314529, 0.136652, 0.082270, 177.616623, 0.028638, 0.003600, 0.001438, 79936, 0.000000, 0.000000, 0.000000, 0.000000, -0.136652, -0.082270, -0.000000, 0, 1080, 1080, 1081, 1080
-0.745364, -0.365504, 9.750752, 0.016341, 0.070402, -0.004276, 26.074249, 2.645425, -44.314529, -1.221524, 0.011064, 177.319595, 0.028639, 0.003599, 0.001438, 79940, 0.000000, 0.000000, 0.000000, 0.000000, 1.221524, -0.011064, 0.000000, 0, 1086, 1080, 1080, 1086
-0.760918, -0.370888, 9.683155, 0.014050, 0.067195, -0.001985, 26.074249, 2.645425, -44.314529, 0.030453, 0.498622, 177.657364, 0.028638, 0.003599, 0.001438, 79944, 0.000000, 0.000000, 0.000000, 0.000000, -0.030453, -0.498622, -0.000000, 0, 1080, 1080, 1082, 1082
-0.735793, -0.336192, 9.695717, 0.012981, 0.063072, -0.000916, 26.074249, 2.645425, -44.314529, -1.219248, -0.032962, 177.354477, 0.028638, 0.003599, 0.001438, 79932, 0.000000, 0.000000, 0.000000, 0.000000, 1.219248, 0.032962, 0.000000, 0, 1086, 1080, 1080, 1086
-0.761516, -0.341575, 9.688539, 0.015882, 0.071319, 0.000000, 26.074249, 2.645425, -44.314529, 0.066155, 0.423201, 177.616257, 0.028638, 0.003599, 0.001438, 79936, 0.000000, 0.000000, 0.000000, 0.000000, -0.066155, -0.423201, -0.000000, 0, 1080, 1080, 1082, 1081
-0.736391, -0.361316, 9.705289, 0.014661, 0.067806, -0.002443, 26.074249, 2.645425, -44.314529, -1.230975, 0.011487, 177.327118, 0.028638, 0.003599, 0.001438, 79936, 0.000000, 0.000000, 0.000000, 0.000000, 1.230975, -0.011487, 0.000000, 0, 1086, 1080, 1080, 1086
-0.756132, -0.361316, 9.711270, 0.017257, 0.064294, -0.000916, 26.074249, 2.645425, -44.314529, 0.088166, 0.315661, 177.641937, 0.028639, 0.003599, 0.001439, 79944, 0.000000, 0.000000, 0.000000, 0.000000, -0.088166, -0.315661, -0.000000, 0, 1080, 1080, 1082, 1081
-0.765105, -0.346959, 9.695717, 0.014355, 0.068417, -0.001374, 26.074249, 2.645425, -44.314529, -1.259057, 0.146554, 177.328232, 0.028640, 0.003598, 0.001439, 79932, 0.000000, 0.000000, 0.000000, 0.000000, 1.259057, -0.146554, 0.000000, 0, 1085, 1080, 1080, 1087
-0.749552, -0.349950, 9.708280, 0.015577, 0.063377, 0.000305, 26.074249, 2.645425, -44.314529, 0.091794, -0.027214, 177.616486, 0.028641, 0.003597, 0.001439, 79936, 0.000000, 0.000000, 0.000000, 0.000000, -0.091794, 0.027214, -0.000000, 0, 1080, 1080, 1080, 1080
-0.742971, -0.363709, 9.692726, 0.014661, 0.063225, -0.000916, 26.074249, 2.645425, -44.314529, -1.267553, 0.011774, 177.320648, 0.028642, 0.003596, 0.001439, 79948, 0.000000, 0.000000, 0.000000, 0.000000, 1.267553, -0.011774, 0.000000, 0, 1086, 1080, 1080, 1086
-0.751945, -0.373879, 9.696316, 0.017562, 0.069333, -0.003360, 26.074249, 2.645425, -44.314529, 0.052071, 0.278224, 177.671844, 0.028642, 0.003595, 0.001439, 79940, 0.000000, 0.000000, 0.000000, 0.000000, -0.052071, -0.278224, -0.000000, 0, 1080, 1080, 1081, 1081
-0.758525, -0.351147, 9.711869, 0.012675, 0.072693, -0.001374, 26.074249, 2.645425, -44.314529, -1.293866, 0.098955, 177.359802, 0.028643, 0.003594, 0.001439, 79932, 0.000000, 0.000000, 0.000000, 0.000000, 1.293866, -0.098955, 0.000000, 0, 1086, 1080, 1080, 1087
-0.759721, -0.364905, 9.704691, 0.016035, 0.064599, 0.002749, 26.074249, 2.645425, -44.314529, 0.058281, 0.204134, 177.678818, 0.028644, 0.003593, 0.001439, 79944, 0.000000, 0.000000, 0.000000, 0.000000, -0.058281, -0.204134, -0.000000, 0, 1080, 1080, 1081, 1080
-0.747757, -0.357129, 9.732208, 0.018326, 0.071929, -0.004581, 26.074249, 2.645425, -44.314529, -1.288808, 0.031390, 177.371887, 0.028645, 0.003592, 0.001439, 79936, 0.000000, 0.000000, 0.000000, 0.000000, 1.288808, -0.031390, 0.000000, 0, 1086, 1080, 1080, 1086
-0.746561, -0.342174, 9.757333, 0.018173, 0.059559, 0.003665, 26.074249, 2.645425, -44.314529, 0.077636, 0.044345, 177.642380, 0.028646, 0.003591, 0.001439, 79948, 0.000000, 0.000000, 0.000000, 0.000000, -0.077636, -0.044345, -0.000000, 0, 1080, 1080, 1080, 1080
-0.763310, -0.357727, 9.724431, 0.015730, 0.062156, 0.005192, 26.074249, 2.645425, -44.314529, -1.278748, 0.116618, 177.338181, 0.028647, 0.003590, 0.001439, 79932, 0.000000, 0.000000, 0.000000, 0.000000, 1.278748, -0.116618, 0.000000, 0, 1085, 1080, 1080, 1087
-0.745364, -0.346361, 9.672387, 0.015577, 0.063072, -0.000611, 26.074249, 2.645425, -44.314529, 0.080083, 0.004678, 177.622726, 0.028648, 0.003589, 0.001439, 79940, 0.000000, 0.000000, 0.000000, 0.000000, -0.080083, -0.004678, -0.000000, 0, 1080, 1080, 1080, 1080
-0.744168, -0.348156, 9.727423, 0.015272, 0.067959, -0.003360, 26.074249, 2.645425, -44.314529, -1.277321, 0.006786, 177.312241, 0.028649, 0.003588, 0.001439, 79944, 0.000000, 0.000000, 0.000000, 0.000000, 1.277321, -0.006786, 0.000000, 0, 1086, 1080, 1080, 1086
-0.762712, -0.342174, 9.699904, 0.016341, 0.072082, -0.002749, 26.074249, 2.645425, -44.314529, 0.047907, 0.332191, 177.589355, 0.028650, 0.003587, 0.001439, 79932, 0.000000, 0.000000, 0.000000, 0.000000, -0.047907, -0.332191, -0.000000, 0, 1080, 1080, 1081, 1081
-0.754337, -0.349950, 9.707682, 0.018631, 0.063835, -0.000611, 26.074249, 2.645425, -44.314529, -1.285706, 0.073775, 177.284271, 0.028651, 0.003587, 0.001439, 79936, 0.000000, 0.000000, 0.000000, 0.000000, 1.285706, -0.073775, 0.000000, 0, 1086, 1080, 1080, 1086
-0.757328, -0.367896, 9.702896, 0.017104, 0.067653, -0.003054, 26.074249, 2.645425, -44.314529, 0.058813, 0.216136, 177.623718, 0.028652, 0.003586, 0.001439, 79936, 0.000000, 0.000000, 0.000000, 0.000000, -0.058813, -0.216136, -0.000000, 0, 1080, 1080, 1081, 1080
-0.725025, -0.366700, 9.685548, 0.014661, 0.064294, 0.000916, 26.074249, 2.645425, -44.314529, -1.273131, -0.062568, 177.334229, 0.028652, 0.003585, 0.001439, 79940, 0.000000, 0.000000, 0.000000, 0.000000, 1.273131, 0.062568, 0.000000, 0, 1086, 1080, 1080, 1086
-0.915255, -0.351745, 9.695717, 0.020311, 0.068417, -0.002596, 26.074249, 2.645425, -44.314529, -0.665419, 1.165205, 177.472046, 0.028646, 0.003592, 0.001439, 79940, 0.000000, 0.000000, 0.000000, 0.000000, 0.665419, -1.165205, -0.000000, 0, 1080, 1080, 1082, 1089
-0.755534, -0.349352, 9.684351, 0.018784, 0.062461, 0.000611, 26.074249, 2.645425, -44.314529, -1.072546, -0.140115, 177.365326, 0.028638, 0.003600, 0.001439, 79936, 0.000000, 0.000000, 0.000000, 0.000000, 1.072546, 0.140115, 0.000000, 0, 1086, 1080, 1080, 1084
-0.754337, -0.322433, 9.704092, 0.012675, 0.061697, 0.000000, 26.074249, 2.645425, -44.314529, 0.123390, 0.518900, 177.563599, 0.028637, 0.003601, 0.001438, 79936, 0.000000, 0.000000, 0.000000, 0.000000, -0.123390, -0.518900, -0.000000, 0, 1080, 1080, 1083, 1082
-0.733998, -0.348754, 9.695717, 0.010843, 0.069180, -0.001527, 26.074249, 2.645425, -44.314529, -1.143689, 0.021614, 177.274796, 0.028637, 0.003601, 0.001438, 79944, 0.000000, 0.000000, 0.000000, 0.000000, 1.143689, -0.021614, 0.000000, 0, 1085, 1080, 1080, 1085
-0.753739, -0.329611, 9.695717, 0.019090, 0.062308, 0.004123, 26.074249, 2.645425, -44.314529, 0.202726, 0.243579, 177.534897, 0.028638, 0.003600, 0.001438, 79944, 0.000000, 0.000000, 0.000000, 0.000000, -0.202726, -0.243579, -0.000000, 0, 1080, 1080, 1082, 1080
-0.740579, -0.358923, 9.726226, 0.018479, 0.062461, 0.000764, 26.074249, 2.645425, -44.314529, -1.139783, 0.021344, 177.241074, 0.028638, 0.003599, 0.001438, 79944, 0.000000, 0.000000, 0.000000, 0.000000, 1.139783, -0.021344, 0.000000, 0, 1085, 1080, 1080, 1085
-0.748355, -0.336790, 9.660423, 0.013897, 0.063225, -0.002138, 26.074249, 2.645425, -44.314529, 0.204968, 0.221925, 177.523605, 0.028639, 0.003599, 0.001438, 79948, 0.000000, 0.000000, 0.000000, 0.000000, -0.204968, -0.221925, -0.000000, 0, 1080, 1080, 1082, 1080
-0.738186, -0.315254, 9.692128, 0.016952, 0.073151, 0.000458, 26.074249, 2.645425, -44.314529, -1.128614, -0.016832, 177.197708, 0.028640, 0.003598, 0.001438, 79928, 0.000000, 0.000000, 0.000000, 0.000000, 1.128614, 0.016832, 0.000000, 0, 1085, 1080, 1080, 1085
-0.763909, -0.346361, 9.697513, 0.015424, 0.067195, 0.000000, 26.074249, 2.645425, -44.314529, 0.108819, 0.532411, 177.490219, 0.028639, 0.003598, 0.001439, 79940, 0.000000, 0.000000, 0.000000, 0.000000, -0.108819, -0.532411, -0.000000, 0, 1080, 1080, 1083, 1082
-0.751346, -0.344566, 9.728021, 0.017562, 0.070402, 0.000305, 26.074249, 2.645425, -44.314529, -1.172199, 0.075610, 177.197418, 0.028639, 0.003598, 0.001439, 79932, 0.000000, 0.000000, 0.000000, 0.000000, 1.172199, -0.075610, 0.000000, 0, 1085, 1080, 1080, 1086
-0.748954, -0.333201, 9.711869, 0.013744, 0.065363, 0.000000, 26.074249, 2.645425, -44.314529, 0.190692, 0.066653, 177.479080, 0.028641, 0.003597, 0.001439, 79944, 0.000000, 0.000000, 0.000000, 0.000000, -0.190692, -0.066653, -0.000000, 0, 1080, 1080, 1081, 1080
-0.761516, -0.340379, 9.697513, 0.017410, 0.061850, 0.004276, 26.074249, 2.645425, -44.314529, -1.166755, 0.116504, 177.172836, 0.028642, 0.003596, 0.001439, 79940, 0.000000, 0.000000, 0.000000, 0.000000, 1.166755, -0.116504, 0.000000, 0, 1085, 1080, 1080, 1086
-0.742373, -0.355932, 9.696914, 0.015119, 0.060476, 0.002291, 26.074249, 2.645425, -44.314529, 0.159395, -0.133843, 177.507385, 0.028642, 0.003595, 0.001439, 79928, 0.000000, 0.000000, 0.000000, 0.000000, -0.159395, 0.133843, -0.000000, 0, 1080, 1081, 1080, 1080
-0.744766, -0.333799, 9.707682, 0.017257, 0.065057, 0.001069, 26.074249, 2.645425, -44.314529, -1.188956, 0.016884, 177.197708, 0.028643, 0.003594, 0.001439, 79936, 0.000000, 0.000000, 0.000000, 0.000000, 1.188956, -0.016884, 0.000000, 0, 1085, 1080, 1080, 1086
-0.756132, -0.367896, 9.694521, 0.017562, 0.067348, 0.000000, 26.074249, 2.645425, -44.314529, 0.098730, 0.384124, 177.564255, 0.028643, 0.003594, 0.001439, 79948, 0.000000, 0.000000, 0.000000, 0.000000, -0.098730, -0.384124, -0.000000, 0, 1080, 1080, 1082, 1081
-0.765703, -0.354138, 9.684351, 0.016035, 0.056810, 0.002291, 26.074249, 2.645425, -44.314529, -1.243230, 0.164096, 177.262650, 0.028644, 0.003593, 0.001439, 79936, 0.000000, 0.000000, 0.000000, 0.000000, 1.243230, -0.164096, 0.000000, 0, 1085, 1080, 1080, 1087
-0.763909, -0.358325, 9.706486, 0.014508, 0.064294, -0.002596, 26.074249, 2.645425, -44.314529, 0.111699, 0.157313, 177.585144, 0.028645, 0.003592, 0.001439, 79936, 0.000000, 0.000000, 0.000000, 0.000000, -0.111699, -0.157313, -0.000000, 0, 1080, 1080, 1081, 1080
-0.752543, -0.369691, 9.704092, 0.015272, 0.062614, 0.003665, 26.074249, 2.645425, -44.314529, -1.246892, 0.075359, 177.293365, 0.028646, 0.003591, 0.001439, 79944, 0.000000, 0.000000, 0.000000, 0.000000, 1.246892, -0.075359, 0.000000, 0, 1085, 1080, 1080, 1086
-0.751945, -0.361316, 9.712467, 0.014966, 0.073609, -0.001680, 26.074249, 2.645425, -44.314529, 0.106568, 0.114192, 177.617828, 0.028647, 0.003590, 0.001439, 79936, 0.000000, 0.000000, 0.000000, 0.000000, -0.106568, -0.114192, -0.000000, 0, 1080, 1080, 1081, 1080
-0.754936, -0.348754, 9.715458, 0.020769, 0.068417, -0.001833, 26.074249, 2.645425, -44.314529, -1.250336, 0.075558, 177.307373, 0.028648, 0.003589, 0.001439, 79940, 0.000000, 0.000000, 0.000000, 0.000000, 1.250336, -0.075558, 0.000000, 0, 1086, 1080, 1080, 1086
-0.745364, -0.346361, 9.696914, 0.015577, 0.062308, -0.037874, 26.074249, 2.645425, -44.314529, 0.110851, 0.030883, 177.593552, 0.028649, 0.003588, 0.001439, 79936, 0.000000, 0.000000, 0.000000, 0.000000, -0.110851, -0.030883, -0.000000, 0, 1080, 1080, 1080, 1080
-0.775275, -0.349352, 9.689735, 0.018021, 0.067348, -0.001069, 26.074249, 2.645425, -44.314529, -1.236993, 0.198484, 177.287628, 0.028650, 0.003587, 0.001439, 79948, 0.000000, 0.000000, 0.000000, 0.000000, 1.236993, -0.198484, 0.000000, 0, 1085, 1080, 1080, 1087
-0.744168, -0.351147, 9.736395, 0.016188, 0.064904, 0.000764, 26.074249, 2.645425, -44.314529, 0.059954, -0.216299, 177.569138, 0.028650, 0.003587, 0.001439, 79932, 0.000000, 0.000000, 0.000000, 0.000000, -0.059954, 0.216299, -0.000000, 0, 1080, 1081, 1080, 1080
-0.742373, -0.365504, 9.703494, 0.013897, 0.068111, -0.000916, 26.074249, 2.645425, -44.314529, -1.283553, -0.003269, 177.282944, 0.028651, 0.003586, 0.001439, 79940, 0.000000, 0.000000, 0.000000, 0.000000, 1.283553, 0.003269, 0.000000, 0, 1086, 1080, 1080, 1086
-0.749552, -0.355932, 9.707682, 0.010385, 0.063530, 0.002443, 26.074249, 2.645425, -44.314529, 0.060640, 0.192910, 177.593536, 0.028652, 0.003585, 0.001440, 79940, 0.000000, 0.000000, 0.000000, 0.000000, -0.060640, -0.192910, -0.000000, 0, 1080, 1080, 1081, 1080
-0.756132, -0.336192, 9.682557, 0.015119, 0.062614, 0.001680, 26.074249, 2.645425, -44.314529, -1.291538, 0.090606, 177.273499, 0.028653, 0.003584, 0.001440, 79940, 0.000000, 0.000000, 0.000000, 0.000000, 1.291538, -0.090606, 0.000000, 0, 1086, 1080, 1080, 1087
-0.745962, -0.333201, 9.717253, 0.015119, 0.066737, 0.001222, 26.074249, 2.645425, -44.314529, 0.073056, 0.017939, 177.546097, 0.028654, 0.003583, 0.001440, 79936, 0.000000, 0.000000, 0.000000, 0.000000, -0.073056, -0.017939, -0.000000, 0, 1080, 1080, 1080, 1080
-0.745962, -0.332602, 9.729815, 0.014355, 0.065515, -0.002902, 26.074249, 2.645425, -44.314529, -1.282409, 0.016628, 177.225967, 0.028655, 0.003582, 0.001440, 79940, 0.000000, 0.000000, 0.000000, 0.000000, 1.282409, -0.016628, 0.000000, 0, 1086, 1080, 1080, 1086
-0.750150, -0.333201, 9.687343, 0.016952, 0.066737, -0.001985, 26.074249, 2.645425, -44.314529, 0.075273, 0.163583, 177.507050, 0.028656, 0.003581, 0.001440, 79940, 0.000000, 0.000000, 0.000000, 0.000000, -0.075273, -0.163583, -0.000000, 0, 1080, 1080, 1081, 1080
-0.748355, -0.355334, 9.716056, 0.016035, 0.064752, 0.004123, 26.074249, 2.645425, -44.314529, -1.278564, 0.038832, 177.210175, 0.028657, 0.003580, 0.001440, 79936, 0.000000, 0.000000, 0.000000, 0.000000, 1.278564, -0.038832, 0.000000, 1, 1086, 1080, 1080, 1086
-0.766301, -0.349352, 9.702896, 0.014508, 0.064446, 0.000458, 26.074249, 2.645425, -44.314529, 0.062937, 0.352521, 177.519318, 0.028658, 0.003580, 0.001440, 80964, 0.000000, 0.000000, 0.000000, 0.000000, -0.062937, -0.352521, -0.000000, 1, 1080, 1080, 1082, 1081
0.734596, 0.511466, 9.030513, 0.012523, 0.063225, -0.002902, 26.074249, 2.645425, -44.314529, 0.601322, -0.904173, 177.530807, 0.028651, 0.003587, 0.001439, 79936, 0.000000, 0.000000, 0.000000, 0.000000, -0.601322, 0.904173, -0.000000, 1, 1081, 1087, 1080, 1080
1.448256, 2.138585, 8.532207, 0.025504, 0.073457, -0.016188, 26.074249, 2.645425, -44.314529, 1.615655, -1.827364, 177.560013, 0.028648, 0.003590, 0.001439, 79936, 0.000000, 0.000000, 0.000000, 0.000000, -1.615655, 1.827364, -0.000000, 1, 1081, 1097, 1080, 1080
0.317647, 0.433101, 10.978868, 0.018479, 0.077122, -0.002291, 26.074249, 2.645425, -44.314529, 1.898294, -3.156272, 177.408585, 0.028640, 0.003598, 0.001439, 79936, 0.000000, 0.000000, 0.000000, 0.000000, -1.898294, 3.156272, 0.000000, 1, 1086, 1105, 1080, 1080
-0.948156, 3.138785, 10.456037, 0.018479, 0.045509, -0.041386, 26.074249, 2.645425, -44.314529, 3.230572, -2.815322, 177.386200, 0.028641, 0.003598, 0.001438, 79944, 0.000000, 0.000000, 0.000000, 0.000000, -3.230572, 2.815322, 0.000000, 1, 1080, 1110, 1082, 1080
-2.926422, -2.149951, -2.311467, -0.022297, 0.058185, 0.004276, 26.074249, 2.645425, -44.314529, 2.416543, -1.702332, 177.333664, 0.028635, 0.003603, 0.001438, 79940, 0.000000, 0.000000, 0.000000, 0.000000, -2.416543, 1.702332, 0.000000, 1, 1080, 1101, 1083, 1080
1.380060, 2.090131, 0.634696, 0.005040, 0.058185, -0.081703, 26.074249, 2.645425, -44.314529, 3.542976, -2.485714, 177.355148, 0.028634, 0.003605, 0.001437, 79940, 0.000000, 0.000000, 0.000000, 0.000000, -3.542976, 2.485714, -0.000000, 1, 1080, 1110, 1085, 1080
-6.903293, 0.211765, -4.904688, -0.024435, 0.056963, -0.043830, 26.074249, 2.645425, -44.314529, 3.574769, -1.108915, 177.327423, 0.028625, 0.003614, 0.001437, 79940, 0.000000, 0.000000, 0.000000, 0.000000, -3.574769, 1.108915, 0.000000, 1, 1080, 1103, 1092, 1080
-5.134997, -7.898109, 16.816759, 0.081092, 0.065515, -0.039401, 26.074249, 2.645425, -44.314529, 2.326345, -0.539387, 177.207199, 0.028625, 0.003614, 0.001437, 79944, 0.000000, 0.000000, 0.000000, 0.000000, -2.326345, 0.539387, 0.000000, 1, 1080, 1094, 1089, 1080
-0.372682, 5.706882, 6.271588, -0.028863, 0.275042, -0.143401, 26.074249, 2.645425, -44.314529, 3.699377, -0.535407, 177.264786, 0.028626, 0.003613, 0.001436, 79936, 0.000000, 0.000000, 0.000000, 0.000000, -3.699377, 0.535407, -0.000000, 1, 1080, 1101, 1096, 1080
4.916054, 1.601995, -16.380068, -0.049480, 0.073457, 0.024740, 26.074249, 2.645425, -44.314529, 4.273608, -1.771917, 177.214554, 0.028619, 0.003620, 0.001436, 79940, 0.000000, 0.000000, 0.000000, 0.000000, -4.273608, 1.771917, 0.000000, 1, 1080, 1110, 1092, 1080
1.254437, -3.279962, 19.599611, -0.030696, 0.015577, -0.008705, 26.074249, 2.645425, -44.314529, 3.018911, -2.327005, 177.074524, 0.028619, 0.003621, 0.001435, 79936, 0.000000, 0.000000, 0.000000, 0.000000, -3.018911, 2.327005, 0.000000, 1, 1080, 1107, 1083, 1080
-7.968100, -4.646264, 17.880966, 0.099876, -0.052382, -0.075289, 26.074249, 2.645425, -44.314529, 2.180047, -1.249155, 176.991531, 0.028614, 0.003626, 0.001435, 79940, 0.000000, 0.000000, 0.000000, 0.000000, -2.180047, 1.249155, 0.000000, 1, 1080, 1097, 1084, 1080
-3.876971, 3.355934, 3.387639, 0.022449, 0.032987, 0.016952, 26.074249, 2.645425, -44.314529, 3.081785, -0.210703, 177.032776, 0.028610, 0.003630, 0.001435, 79928, 0.000000, 0.000000, 0.000000, 0.000000, -3.081785, 0.210703, -0.000000, 1, 1080, 1096, 1094, 1080
3.003591, 4.380660, 14.294723, 0.116981, -0.098807, -0.020311, 26.074249, 2.645425, -44.314529, 3.990292, -1.257752, 177.037857, 0.028606, 0.003635, 0.001434, 79948, 0.000000, 0.000000, 0.000000, 0.000000, -3.990292, 1.257752, -0.000000, 1, 1080, 1106, 1093, 1080
-6.261418, -8.303693, 16.095322, 0.117897, -0.027794, -0.035125, 26.074249, 2.645425, -44.314529, 2.794393, -0.597144, 176.924393, 0.028605, 0.003636, 0.001434, 79936, 0.000000, 0.000000, 0.000000, 0.000000, -2.794393, 0.597144, 0.000000, 1, 1080, 1097, 1091, 1080
-5.896513, 7.433304, 2.137987, 0.049327, 0.112246, 0.002138, 26.074249, 2.645425, -44.314529, 3.872612, 0.265956, 176.986099, 0.028602, 0.003639, 0.001433, 79936, 0.000000, 0.000000, 0.000000, 0.000000, -3.872612, -0.265956, -0.000000, 1, 1080, 1098, 1101, 1080
-1.750350, -0.047258, 9.480364, 0.099876, 0.000458, 0.063988, 26.074249, 2.645425, -44.314529, 3.005917, 1.312739, 176.749954, 0.028598, 0.003643, 0.001433, 79944, 0.000000, 0.000000, 0.000000, 0.000000, -3.005917, -1.312739, 0.000000, 1, 1080, 1088, 1102, 1080
5.525626, 6.097510, 12.281161, -0.038637, 0.177456, 0.019700, 26.074249, 2.645425, -44.314529, 3.856031, 0.249138, 176.800766, 0.028593, 0.003648, 0.001433, 79932, 0.000000, 0.000000, 0.000000, 0.000000, -3.856031, -0.249138, -0.000000, 1, 1080, 1098, 1100, 1080
-3.664608, 1.365105, 0.753141, -0.019395, 0.141415, 0.144164, 26.074249, 2.645425, -44.314529, 4.296349, 1.554559, 176.831635, 0.028585, 0.003656, 0.001433, 79948, 0.000000, 0.000000, 0.000000, 0.000000, -4.296349, -1.554559, -0.000000, 1, 1080, 1094, 1109, 1080
2.111068, -7.983055, -7.024131, -0.078649, -0.051924, -0.113774, 26.074249, 2.645425, -44.314529, 2.932789, 1.313410, 176.656418, 0.028587, 0.003655, 0.001432, 79932, 0.000000, 0.000000, 0.000000, 0.000000, -2.932789, -1.313410, 0.000000, 1, 1080, 1088, 1101, 1080
4.018745, 4.607380, 2.495116, 0.093615, 0.032529, 0.016799, 26.074249, 2.645425, -44.314529, 3.925380, 0.355022, 176.729950, 0.028583, 0.003658, 0.001432, 79948, 0.000000, 0.000000, 0.000000, 0.000000, -3.925380, -0.355022, -0.000000, 1, 1080, 1098, 1101, 1080
-4.989035, 8.261818, -1.288535, 0.111941, 0.000000, -0.022449, 26.074249, 2.645425, -44.314529, 5.099866, 1.078677, 176.809906, 0.028582, 0.003660, 0.001431, 79944, 0.000000, 0.000000, 0.000000, 0.000000, -5.099866, -1.078677, -0.000000, 1, 1080, 1100, 1111, 1080
-16.540386, 1.739582, 1.527817, -0.017562, 0.205709, -0.043830, 26.074249, 2.645425, -44.314529, 5.181657, 2.458611, 176.789932, 0.028574, 0.003669, 0.001431, 79928, 0.000000, 0.000000, 0.000000, 0.000000, -5.181657, -2.458611, 0.000000, 1, 1080, 1093, 1119, 1080
1.695913, 0.528814, 7.100701, 0.146455, -0.159436, -0.003054, 26.074249, 2.645425, -44.314529, 5.057420, 1.087892, 176.703064, 0.028565, 0.003677, 0.001431, 79944, 0.000000, 0.000000, 0.000000, 0.000000, -5.057420, -1.087892, 0.000000, 1, 1080, 1100, 1111, 1080
-5.115855, -7.668398, 17.821144, 0.045815, 0.061392, -0.001069, 26.074249, 2.645425, -44.314529, 3.757270, 1.541567, 176.524658, 0.028566, 0.003677, 0.001430, 79936, 0.000000, 0.000000, 0.000000, 0.000000, -3.757270, -1.541567, 0.000000, 1, 1080, 1091, 1107, 1080
1.660021, -9.937991, 12.180065, -0.060323, 0.155771, 0.114843, 26.074249, 2.645425, -44.314529, 2.422085, 1.198320, 176.375671, 0.028566, 0.003677, 0.001430, 79936, 0.000000, 0.000000, 0.000000, 0.000000, -2.422085, -1.198320, 0.000000, 1, 1080, 1086, 1098, 1080
-1.680958, -4.081557, 11.768499, -0.024587, 0.031918, 0.107970, 26.074249, 2.645425, -44.314529, 1.049292, 1.353216, 176.215668, 0.028568, 0.003676, 0.001430, 79936, 0.000000, 0.000000, 0.000000, 0.000000, -1.049292, -1.353216, 0.000000, 1, 1080, 1080, 1092, 1081
12.019149, -5.159524, 16.578672, 0.002749, 0.021533, -0.054978, 26.074249, 2.645425, -44.314529, 0.549461, 0.078886, 176.158249, 0.028560, 0.003683, 0.001429, 79932, 0.000000, 0.000000, 0.000000, 0.000000, -0.549461, -0.078886, 0.000000, 1, 1080, 1082, 1083, 1080
-8.726624, 0.092124, -5.647062, -0.048106, 0.041386, -0.121562, 26.074249, 2.645425, -44.314529, 0.540429, 1.451329, 176.143845, 0.028552, 0.003692, 0.001429, 79948, 0.000000, 0.000000, 0.000000, 0.000000, -0.540429, -1.451329, 0.000000, 1, 1080, 1080, 1090, 1084
0.552144, -5.471787, 13.866407, 0.048717, 0.036805, -0.014355, 26.074249, 2.645425, -44.314529, -0.752773, 0.983574, 176.006958, 0.028552, 0.003692, 0.001429, 79940, 0.000000, 0.000000, 0.000000, 0.000000, 0.752773, -0.983574, 0.000000, 1, 1080, 1080, 1081, 1088
-7.054041, -2.232504, -7.472785, -0.077885, -0.136987, -0.008094, 26.074249, 2.645425, -44.314529, -1.175523, 2.275180, 175.966110, 0.028545, 0.003699, 0.001428, 79932, 0.000000, 0.000000, 0.000000, 0.000000, 1.175523, -2.275180, 0.000000, 1, 1080, 1080, 1085, 1097
0.509671, -2.466402, 2.043471, 0.042608, 0.052534, 0.055436, 26.074249, 2.645425, -44.314529, -2.488490, 1.860822, 175.827957, 0.028545, 0.003699, 0.001428, 79944, 0.000000, 0.000000, 0.000000, 0.000000, 2.488490, -1.860822, 0.000000, 1, 1083, 1080, 1080, 1102
3.873382, 5.835496, 19.599611, 0.048106, 0.028558, 0.058032, 26.074249, 2.645425, -44.314529, -1.411909, 1.009320, 175.961243, 0.028543, 0.003701, 0.001428, 79932, 0.000000, 0.000000, 0.000000, 0.000000, 1.411909, -1.009320, -0.000000, 1, 1082, 1080, 1080, 1092
-1.146760, -0.045464, 10.135997, 0.001374, 0.050244, 0.085827, 26.074249, 2.645425, -44.314529, -0.134133, 1.524965, 176.190552, 0.028543, 0.003702, 0.001427, 79940, 0.000000, 0.000000, 0.000000, 0.000000, 0.134133, -1.524965, -0.000000, 1, 1080, 1080, 1087, 1088
-1.888535, 0.556331, 1.435095, -0.105222, 0.270155, 0.109498, 26.074249, 2.645425, -44.314529, 0.299329, 2.841817, 176.247467, 0.028535, 0.003710, 0.001427, 79944, 0.000000, 0.000000, 0.000000, 0.000000, -0.299329, -2.841817, -0.000000, 1, 1080, 1080, 1096, 1092
0.546760, -8.968898, 3.969095, 0.003818, 0.213192, -0.129503, 26.074249, 2.645425, -44.314529, -1.076739, 2.694933, 176.062973, 0.028537, 0.003709, 0.001427, 79952, 0.000000, 0.000000, 0.000000, 0.000000, 1.076739, -2.694933, 0.000000, 1, 1080, 1080, 1088, 1099
-0.222532, 15.169299, 18.809978, 0.248011, -0.002291, 0.093615, 26.074249, 2.645425, -44.314529, 0.315951, 2.522628, 176.240662, 0.028538, 0.003708, 0.001427, 79932, 0.000000, 0.000000, 0.000000, 0.000000, -0.315951, -2.522628, -0.000000, 1, 1080, 1080, 1094, 1091
-0.203390, -9.171689, 12.037094, 0.143553, -0.044593, 0.016799, 26.074249, 2.645425, -44.314529, -1.042651, 2.328001, 176.075150, 0.028539, 0.003707, 0.001426, 79944, 0.000000, 0.000000, 0.000000, 0.000000, 1.042651, -2.328001, 0.000000, 1, 1080, 1080, 1086, 1097
3.713661, -1.980061, 1.916053, 0.050091, 0.276875, -0.049938, 26.074249, 2.645425, -44.314529, -1.635070, 1.114986, 176.010178, 0.028533, 0.003713, 0.001426, 79936, 0.000000, 0.000000, 0.000000, 0.000000, 1.635070, -1.114986, 0.000000, 1, 1082, 1080, 1080, 1094
-8.032107, -3.235096, 16.981863, -0.052687, -0.042608, -0.108734, 26.074249, 2.645425, -44.314529, -2.090672, 2.399364, 175.970428, 0.028526, 0.003720, 0.001425, 79932, 0.000000, 0.000000, 0.000000, 0.000000, 2.090672, -2.399364, 0.000000, 1, 1080, 1080, 1081, 1102
-8.290532, 4.510471, 2.592623, -0.053451, 0.220980, -0.020464, 26.074249, 2.645425, -44.314529, -1.384672, 3.591533, 176.066101, 0.028520, 0.003727, 0.001425, 79944, 0.000000, 0.000000, 0.000000, 0.000000, 1.384672, -3.591533, -0.000000, 1, 1080, 1080, 1091, 1105
-10.947761, -9.206386, 18.050856, -0.070250, 0.041081, -0.083689, 26.074249, 2.645425, -44.314529, -2.360749, 4.558795, 175.924255, 0.028516, 0.003730, 0.001425, 79940, 0.000000, 0.000000, 0.000000, 0.000000, 2.360749, -4.558795, 0.000000, 1, 1080, 1080, 1091, 1115
10.945370, -6.911070, 19.599611, -0.046884, -0.109498, 0.047342, 26.074249, 2.645425, -44.314529, -2.860968, 3.276184, 175.868378, 0.028509, 0.003738, 0.001424, 79932, 0.000000, 0.000000, 0.000000, 0.000000, 2.860968, -3.276184, 0.000000, 1, 1080, 1080, 1082, 1111
4.133003, -13.657035, 6.768698, -0.054062, -0.052229, -0.003360, 26.074249, 2.645425, -44.314529, -4.151701, 2.763135, 175.714966, 0.028509, 0.003738, 0.001424, 79936, 0.000000, 0.000000, 0.000000, 0.000000, 4.151701, -2.763135, 0.000000, 1, 1087, 1080, 1080, 1115
0.872184, 1.888535, 19.593628, 0.024435, 0.195171, 0.050702, 26.074249, 2.645425, -44.314529, -3.063775, 1.947578, 175.902542, 0.028507, 0.003740, 0.001424, 79936, 0.000000, 0.000000, 0.000000, 0.000000, 3.063775, -1.947578, -0.000000, 1, 1085, 1080, 1080, 1105
10.051650, 8.200203, -0.792623, 0.151800, 0.150426, 0.137903, 26.074249, 2.645425, -44.314529, -2.163723, 0.921511, 176.013626, 0.028503, 0.003744, 0.001424, 79940, 0.000000, 0.000000, 0.000000, 0.000000, 2.163723, -0.921511, -0.000000, 1, 1086, 1080, 1080, 1095
3.777070, 3.339184, 4.146163, 0.090561, 0.052840, -0.061392, 26.074249, 2.645425, -44.314529, -1.246049, -0.097540, 176.093781, 0.028499, 0.003749, 0.001423, 79940, 0.000000, 0.000000, 0.000000, 0.000000, 1.246049, 0.097540, -0.000000, 1, 1086, 1080, 1080, 1085
-0.812363, -5.062016, 19.561924, -0.014661, 0.006720, -0.024282, 26.074249, 2.645425, -44.314529, -2.606326, -0.312185, 176.016602, 0.028500, 0.003748, 0.001423, 79940, 0.000000, 0.000000, 0.000000, 0.000000, 2.606326, 0.312185, 0.000000, 1, 1094, 1080, 1080, 1091
-3.348755, -12.887742, -2.481955, -0.100487, -0.063225, -0.118966, 26.074249, 2.645425, -44.314529, -3.939988, 0.038219, 175.921646, 0.028501, 0.003747, 0.001422, 79944, 0.000000, 0.000000, 0.000000, 0.000000, 3.939988, -0.038219, 0.000000, 1, 1099, 1080, 1080, 1100
-4.649254, 3.091527, 2.910271, 0.028558, 0.018784, -0.010537, 26.074249, 2.645425, -44.314529, -3.082633, 1.117474, 176.013229, 0.028496, 0.003752, 0.001422, 79944, 0.000000, 0.000000, 0.000000, 0.000000, 3.082633, -1.117474, -0.000000, 1, 1090, 1080, 1080, 1101
-5.233702, 5.339584, 19.599611, 0.014050, 0.004276, 0.117439, 26.074249, 2.645425, -44.314529, -1.831653, 1.703341, 176.180176, 0.028496, 0.003753, 0.001422, 79928, 0.000000, 0.000000, 0.000000, 0.000000, 1.831653, -1.703341, -0.000000, 1, 1080, 1080, 1080, 1098
5.325227, -10.237095, 12.861422, -0.179900, -0.228311, 0.046426, 26.074249, 2.645425, -44.314529, -2.968184, 0.885447, 176.083923, 0.028494, 0.003755, 0.001421, 79940, 0.000000, 0.000000, 0.000000, 0.000000, 2.968184, -0.885447, 0.000000, 1, 1090, 1080, 1080, 1099
-13.770097, 11.547763, 19.240089, 0.219911, -0.045051, 0.135765, 26.074249, 2.645425, -44.314529, -1.922184, 1.800345, 176.214203, 0.028491, 0.003758, 0.001421, 79944, 0.000000, 0.000000, 0.000000, 0.000000, 1.922184, -1.800345, -0.000000, 1, 1080, 1080, 1080, 1099
-4.899903, 2.840879, 18.384056, 0.167072, 0.089492, -0.007636, 26.074249, 2.645425, -44.314529, -0.789893, 2.612946, 176.365616, 0.028490, 0.003760, 0.001421, 79936, 0.000000, 0.000000, 0.000000, 0.000000, 0.789893, -2.612946, -0.000000, 1, 1080, 1080, 1089, 1097
2.277967, -3.574877, 18.798016, 0.098502, 0.011912, 0.014966, 26.074249, 2.645425, -44.314529, -1.520667, 1.455791, 176.288330, 0.028484, 0.003766, 0.001420, 79944, 0.000000, 0.000000, 0.000000, 0.000000, 1.520667, -1.455791, 0.000000, 1, 1080, 1080, 1080, 1095
-2.806183, 12.831512, 2.941976, 0.047495, 0.013439, -0.024129, 26.074249, 2.645425, -44.314529, -0.161394, 1.719502, 176.431183, 0.028485, 0.003765, 0.001420, 79936, 0.000000, 0.000000, 0.000000, 0.000000, 0.161394, -1.719502, -0.000000, 1, 1080, 1080, 1087, 1089
7.374680, 5.097908, -9.762117, -0.029016, 0.154091, -0.175318, 26.074249, 2.645425, -44.314529, 0.670959, 0.646794, 176.494858, 0.028480, 0.003770, 0.001420, 79944, 0.000000, 0.000000, 0.000000, 0.000000, -0.670959, -0.646794, -0.000000, 1, 1080, 1080, 1086, 1080
-10.383056, -1.375275, 5.002196, 0.067806, -0.066584, -0.130267, 26.074249, 2.645425, -44.314529, 0.480115, 1.994858, 176.459366, 0.028472, 0.003778, 0.001419, 79936, 0.000000, 0.000000, 0.000000, 0.000000, -0.480115, -1.994858, 0.000000, 1, 1080, 1080, 1092, 1087
3.552743, 9.664611, 18.420547, 0.054825, 0.122631, -0.018326, 26.074249, 2.645425, -44.314529, 1.681870, 1.323298, 176.574829, 0.028471, 0.003780, 0.001419, 79932, 0.000000, 0.000000, 0.000000, 0.000000, -1.681870, -1.323298, -0.000000, 1, 1080, 1081, 1095, 1080
-8.393423, 8.942576, 18.887148, 0.024740, 0.190437, 0.020769, 26.074249, 2.645425, -44.314529, 2.779284, 2.168785, 176.672211, 0.028469, 0.003782, 0.001419, 79940, 0.000000, 0.000000, 0.000000, 0.000000, -2.779284, -2.168785, -0.000000, 1, 1080, 1083, 1105, 1080
-7.215556, -6.456434, 19.599611, 0.043524, -0.051313, 0.078191, 26.074249, 2.645425, -44.314529, 1.626083, 2.913204, 176.504166, 0.028468, 0.003784, 0.001418, 79932, 0.000000, 0.000000, 0.000000, 0.000000, -1.626083, -2.913204, 0.000000, 1, 1080, 1080, 1103, 1086
-2.635096, 10.596615, 4.399803, -0.093615, 0.056810, 0.055131, 26.074249, 2.645425, -44.314529, 2.978244, 3.179136, 176.673157, 0.028469, 0.003783, 0.001418, 79940, 0.000000, 0.000000, 0.000000, 0.000000, -2.978244, -3.179136, -0.000000, 1, 1080, 1080, 1111, 1081
-3.862016, -1.164108, 7.813164, -0.054062, 0.058185, 0.051924, 26.074249, 2.645425, -44.314529, 2.276681, 4.360721, 176.537994, 0.028463, 0.003789, 0.001418, 79960, 0.000000, 0.000000, 0.000000, 0.000000, -2.276681, -4.360721, 0.000000, 1, 1080, 1080, 1113, 1090
3.483950, 5.439484, -8.304291, -0.080023, 0.078191, 0.196851, 26.074249, 2.645425, -44.314529, 3.552541, 3.839335, 176.720917, 0.028463, 0.003789, 0.001417, 79940, 0.000000, 0.000000, 0.000000, 0.000000, -3.552541, -3.839335, -0.000000, 1, 1080, 1080, 1117, 1081
-4.582854, 7.963314, 4.972884, 0.000000, -0.031307, 0.041386, 26.074249, 2.645425, -44.314529, 4.787580, 4.447967, 176.884705, 0.028462, 0.003790, 0.001417, 79936, 0.000000, 0.000000, 0.000000, 0.000000, -4.787580, -4.447967, -0.000000, 1, 1080, 1081, 1127, 1080
-1.421337, -7.660023, 9.457631, 0.075442, -0.035430, 0.097433, 26.074249, 2.645425, -44.314529, 3.406661, 4.434867, 176.648911, 0.028464, 0.003789, 0.001417, 79936, 0.000000, 0.000000, 0.000000, 0.000000, -3.406661, -4.434867, 0.000000, 1, 1080, 1080, 1120, 1085
-3.847061, -0.641276, -5.067998, 0.104611, 0.020311, -0.038485, 26.074249, 2.645425, -44.314529, 3.224645, 5.785707, 176.592209, 0.028456, 0.003797, 0.001417, 79952, 0.000000, 0.000000, 0.000000, 0.000000, -3.224645, -5.785707, 0.000000, 1, 1080, 1080, 1126, 1093
-10.568500, -5.741578, 19.599611, 0.108123, 0.156992, 0.060476, 26.074249, 2.645425, -44.314529, 2.238133, 6.748343, 176.379654, 0.028452, 0.003801, 0.001416, 79936, 0.000000, 0.000000, 0.000000, 0.000000, -2.238133, -6.748343, 0.000000, 1, 1080, 1080, 1125, 1103
2.505286, -2.150549, 19.488344, 0.038637, 0.121104, -0.076205, 26.074249, 2.645425, -44.314529, 1.656438, 5.528830, 176.237244, 0.028446, 0.003807, 0.001416, 79928, 0.000000, 0.000000, 0.000000, 0.000000, -1.656438, -5.528830, 0.000000, 1, 1080, 1080, 1116, 1099
10.217353, -1.922035, 7.390233, 0.065973, -0.030085, 0.019700, 26.074249, 2.645425, -44.314529, 1.402419, 4.194617, 176.187881, 0.028438, 0.003815, 0.001416, 79936, 0.000000, 0.000000, 0.000000, 0.000000, -1.402419, -4.194617, 0.000000, 1, 1080, 1080, 1108, 1094
3.669394, 6.270391, -10.700105, -0.045662, 0.151495, 0.025656, 26.074249, 2.645425, -44.314529, 2.711695, 3.767720, 176.364761, 0.028438, 0.003815, 0.001415, 79940, 0.000000, 0.000000, 0.000000, 0.000000, -2.711695, -3.767720, -0.000000, 1, 1080, 1080, 1113, 1085
-0.157328, -2.524428, 19.599611, -0.010385, 0.049633, -0.006720, 26.074249, 2.645425, -44.314529, 1.613355, 2.941514, 176.157822, 0.028436, 0.003817, 0.001415, 79936, 0.000000, 0.000000, 0.000000, 0.000000, -1.613355, -2.941514, 0.000000, 1, 1080, 1080, 1103, 1086
-6.047859, 5.818149, 9.238688, 0.026420, 0.066279, -0.028863, 26.074249, 2.645425, -44.314529, 2.661074, 3.838188, 176.281906, 0.028433, 0.003820, 0.001415, 79940, 0.000000, 0.000000, 0.000000, 0.000000, -2.661074, -3.838188, -0.000000, 1, 1080, 1080, 1113, 1086
-5.177470, -1.183849, -7.064211, -0.060781, -0.125991, -0.163101, 26.074249, 2.645425, -44.314529, 2.387573, 5.165864, 176.209229, 0.028426, 0.003828, 0.001415, 79932, 0.000000, 0.000000, 0.000000, 0.000000, -2.387573, -5.165864, 0.000000, 1, 1080, 1080, 1118, 1094
6.471389, -5.060820, 9.753145, 0.074984, 0.251676, -0.006109, 26.074249, 2.645425, -44.314529, 1.611835, 4.064820, 176.072601, 0.028420, 0.003833, 0.001414, 79940, 0.000000, 0.000000, 0.000000, 0.000000, -1.611835, -4.064820, 0.000000, 1, 1080, 1080, 1109, 1092
11.103893, -1.333999, 12.095120, -0.139125, -0.020159, -0.068417, 26.074249, 2.645425, -44.314529, 1.423038, 2.712863, 176.032898, 0.028412, 0.003841, 0.001414, 79940, 0.000000, 0.000000, 0.000000, 0.000000, -1.423038, -2.712863, 0.000000, 1, 1080, 1080, 1101, 1086
-3.519842, 13.510475, -3.108875, 0.102625, -0.008247, -0.035125, 26.074249, 2.645425, -44.314529, 2.760965, 3.090924, 176.190109, 0.028413, 0.003841, 0.001414, 79936, 0.000000, 0.000000, 0.000000, 0.000000, -2.760965, -3.090924, -0.000000, 1, 1080, 1080, 1109, 1081
1.338784, 8.085946, 18.536600, 0.124922, 0.185245, -0.099266, 26.074249, 2.645425, -44.314529, 3.990206, 2.456872, 176.300201, 0.028413, 0.003842, 0.001413, 79964, 0.000000, 0.000000, 0.000000, 0.000000, -3.990206, -2.456872, -0.000000, 1, 1080, 1087, 1112, 1080
3.114857, 3.506083, -0.171087, 0.038637, 0.430965, -0.085521, 26.074249, 2.645425, -44.314529, 5.006123, 1.558838, 176.387650, 0.028410, 0.003845, 0.001413, 79932, 0.000000, 0.000000, 0.000000, 0.000000, -5.006123, -1.558838, -0.000000, 1, 1080, 1097, 1113, 1080
-2.137389, -7.568498, 1.445863, 0.001222, -0.006414, -0.012828, 26.074249, 2.645425, -44.314529, 3.665793, 1.889034, 176.221283, 0.028410, 0.003844, 0.001413, 79940, 0.000000, 0.000000, 0.000000, 0.000000, -3.665793, -1.889034, 0.000000, 1, 1080, 1089, 1108, 1080
-2.386242, 4.325625, -1.353739, 0.116217, 0.007941, -0.079107, 26.074249, 2.645425, -44.314529, 4.863197, 2.579099, 176.332855, 0.028409, 0.003845, 0.001412, 79936, 0.000000, 0.000000, 0.000000, 0.000000, -4.863197, -2.579099, -0.000000, 1, 1080, 1091, 1118, 1080
0.234497, 6.354739, 11.457434, 0.082925, -0.026573, 0.040164, 26.074249, 2.645425, -44.314529, 6.178354, 2.135611, 176.433258, 0.028410, 0.003845, 0.001412, 79948, 0.000000, 0.000000, 0.000000, 0.000000, -6.178354, -2.135611, -0.000000, 1, 1080, 1100, 1122, 1080
-5.048257, -10.853246, 16.311274, 0.017257, 0.189521, -0.024129, 26.074249, 2.645425, -44.314529, 4.835106, 2.465803, 176.233139, 0.028411, 0.003845, 0.001412, 79948, 0.000000, 0.000000, 0.000000, 0.000000, -4.835106, -2.465803, 0.000000, 1, 1080, 1092, 1117, 1080
8.751749, 8.897113, -12.770494, -0.127213, -0.009927, -0.014050, 26.074249, 2.645425, -44.314529, 5.896105, 1.599146, 176.316391, 0.028408, 0.003847, 0.001411, 79908, 0.000000, 0.000000, 0.000000, 0.000000, -5.896105, -1.599146, -0.000000, 1, 1080, 1101, 1118, 1080
0.457029, 8.127820, 3.559922, 0.163865, 0.085368, -0.038179, 26.074249, 2.645425, -44.314529, 7.274221, 1.430023, 176.419876, 0.028410, 0.003846, 0.001411, 79940, 0.000000, 0.000000, 0.000000, 0.000000, -7.274221, -1.430023, -0.000000, 1, 1080, 1109, 1124, 1080
7.755736, -7.590632, 9.768699, -0.220064, 0.002138, 0.027184, 26.074249, 2.645425, -44.314529, 6.261208, 0.497236, 176.290405, 0.028407, 0.003850, 0.001411, 79940, 0.000000, 0.000000, 0.000000, 0.000000, -6.261208, -0.497236, 0.000000, 1, 1080, 1109, 1114, 1080
0.583849, 10.129416, 9.475577, 0.077580, 0.228158, 0.030849, 26.074249, 2.645425, -44.314529, 7.618818, 0.271235, 176.357574, 0.028408, 0.003849, 0.001410, 79944, 0.000000, 0.000000, 0.000000, 0.000000, -7.618818, -0.271235, -0.000000, 1, 1080, 1117, 1120, 1080
-3.549154, 5.377271, 14.263616, -0.022297, 0.275042, -0.041844, 26.074249, 2.645425, -44.314529, 8.700052, 1.100604, 176.292999, 0.028405, 0.003851, 0.001410, 79936, 0.000000, 0.000000, 0.000000, 0.000000, -8.700052, -1.100604, 0.000000, 1, 1080, 1118, 1130, 1080
-3.092125, 7.321439, 0.199202, -0.073304, 0.142026, 0.063988, 26.074249, 2.645425, -44.314529, 9.949500, 1.639245, 176.379211, 0.028405, 0.003851, 0.001410, 79928, 0.000000, 0.000000, 0.000000, 0.000000, -9.949500, -1.639245, -0.000000, 1, 1080, 1122, 1139, 1080
-5.118846, -3.177669, 6.738786, -0.016799, -0.131489, 0.139430, 26.074249, 2.645425, -44.314529, 8.921054, 2.542427, 176.205597, 0.028402, 0.003854, 0.001409, 79936, 0.000000, 0.000000, 0.000000, 0.000000, -8.921054, -2.542427, 0.000000, 1, 1080, 1112, 1138, 1080
-1.196411, -0.485743, -1.170090, 0.093615, 0.219301, 0.081398, 26.074249, 2.645425, -44.314529, 8.494911, 3.860489, 176.104889, 0.028395, 0.003862, 0.001409, 79944, 0.000000, 0.000000, 0.000000, 0.000000, -8.494911, -3.860489, 0.000000, 1, 1080, 1103, 1143, 1080
-15.012569, 5.538786, -3.979862, 0.218690, 0.307113, 0.038332, 26.074249, 2.645425, -44.314529, 8.945294, 5.169438, 176.138947, 0.028388, 0.003869, 0.001409, 79960, 0.000000, 0.000000, 0.000000, 0.000000, -8.945294, -5.169438, -0.000000, 1, 1080, 1099, 1152, 1080
-9.597013, 11.723037, 14.591432, 0.244193, 0.157451, -0.024893, 26.074249, 2.645425, -44.314529, 10.037417, 6.004440, 176.248184, 0.028386, 0.003872, 0.001408, 79940, 0.000000, 0.000000, 0.000000, 0.000000, -10.037417, -6.004440, -0.000000, 1, 1080, 1100, 1161, 1080
-2.363511, 5.066204, 0.306281, 0.183412, -0.020159, 0.151800, 26.074249, 2.645425, -44.314529, 11.305320, 6.542985, 176.443268, 0.028386, 0.003872, 0.001408, 79932, 0.000000, 0.000000, 0.000000, 0.000000, -11.305320, -6.542985, -0.000000, 1, 1080, 1104, 1171, 1080
4.307081, -6.470791, 1.819742, 0.079718, -0.038790, -0.111788, 26.074249, 2.645425, -44.314529, 10.162243, 5.837803, 176.180206, 0.028384, 0.003874, 0.001408, 79940, 0.000000, 0.000000, 0.000000, 0.000000, -10.162243, -5.837803, 0.000000, 1, 1080, 1102, 1161, 1080
6.713663, -2.736791, 18.134007, -0.142484, 0.213192, 0.060170, 26.074249, 2.645425, -44.314529, 9.382671, 4.747580, 175.990936, 0.028379, 0.003878, 0.001408, 79940, 0.000000, 0.000000, 0.000000, 0.000000, -9.382671, -4.747580, 0.000000, 1, 1080, 1103, 1152, 1080
5.280960, 6.631110, 17.133209, 0.027031, 0.120951, 0.014966, 26.074249, 2.645425, -44.314529, 9.831480, 3.463457, 175.970810, 0.028372, 0.003886, 0.001407, 79948, 0.000000, 0.000000, 0.000000, 0.000000, -9.831480, -3.463457, 0.000000, 1, 1080, 1112, 1147, 1080
-4.403990, -4.342973, 3.456432, 0.113163, -0.153633, -0.122326, 26.074249, 2.645425, -44.314529, 8.717499, 4.259723, 175.750916, 0.028370, 0.003888, 0.001407, 79936, 0.000000, 0.000000, 0.000000, 0.000000, -8.717499, -4.259723, 0.000000, 1, 1080, 1102, 1146, 1080
3.484548, 5.101498, -14.642281, 0.238390, -0.007330, -0.026420, 26.074249, 2.645425, -44.314529, 10.073564, 3.902732, 175.847778, 0.028371, 0.003887, 0.001407, 79924, 0.000000, 0.000000, 0.000000, 0.000000, -10.073564, -3.902732, -0.000000, 1, 1080, 1111, 1151, 1080
-10.235299, -8.611769, 19.599611, 0.023518, 0.007483, 0.212428, 26.074249, 2.645425, -44.314529, 8.856771, 4.548359, 175.611557, 0.028370, 0.003888, 0.001407, 79936, 0.000000, 0.000000, 0.000000, 0.000000, -8.856771, -4.548359, 0.000000, 1, 1080, 1102, 1148, 1080
3.593421, 0.140578, -7.730013, -0.140041, -0.122173, -0.157145, 26.074249, 2.645425, -44.314529, 9.181662, 3.245501, 175.523895, 0.028362, 0.003896, 0.001406, 79940, 0.000000, 0.000000, 0.000000, 0.000000, -9.181662, -3.245501, 0.000000, 1, 1080, 1110, 1143, 1080
-9.090932, -0.020937, 4.992026, -0.264657, 0.328645, -0.037721, 26.074249, 2.645425, -44.314529, 8.934326, 4.617399, 175.441177, 0.028355, 0.003904, 0.001406, 79936, 0.000000, 0.000000, 0.000000, 0.000000, -8.934326, -4.617399, 0.000000, 1, 1080, 1102, 1149, 1080
-10.802996, -0.214756, 17.149361, -0.082925, 0.169821, -0.014355, 26.074249, 2.645425, -44.314529, 8.317749, 5.855509, 175.250961, 0.028348, 0.003910, 0.001406, 79944, 0.000000, 0.000000, 0.000000, 0.000000, -8.317749, -5.855509, 0.000000, 1, 1080, 1092, 1152, 1080
-1.346561, -2.323431, 14.813367, -0.260534, 0.098807, 0.163101, 26.074249, 2.645425, -44.314529, 6.976410, 5.480462, 174.939240, 0.028349, 0.003910, 0.001406, 79936, 0.000000, 0.000000, 0.000000, 0.000000, -6.976410, -5.480462, 0.000000, 1, 1080, 1087, 1143, 1080
-10.520642, 5.270192, 18.990040, 0.007483, -0.056810, -0.030543, 26.074249, 2.645425, -44.314529, 7.404778, 6.748032, 174.929916, 0.028342, 0.003917, 0.001405, 79936, 0.000000, 0.000000, 0.000000, 0.000000, -7.404778, -6.748032, 0.000000, 1, 1080, 1083, 1152, 1080
-0.100499, 9.084352, -3.209972, -0.056200, 0.253509, 0.171959, 26.074249, 2.645425, -44.314529, 8.794808, 6.824540, 175.183899, 0.028344, 0.003916, 0.001405, 79940, 0.000000, 0.000000, 0.000000, 0.000000, -8.794808, -6.824540, -0.000000, 1, 1080, 1090, 1159, 1080
0.774078, 4.156333, 8.902496, 0.146760, -0.098655, -0.057116, 26.074249, 2.645425, -44.314529, 9.707345, 5.772337, 175.249786, 0.028340, 0.003920, 0.001405, 79956, 0.000000, 0.000000, 0.000000, 0.000000, -9.707345, -5.772337, -0.000000, 1, 1080, 1100, 1159, 1080
1.481157, -5.516055, -0.580260, -0.138361, 0.279165, -0.077733, 26.074249, 2.645425, -44.314529, 8.362919, 5.490209, 174.977798, 0.028341, 0.003920, 0.001405, 79936, 0.000000, 0.000000, 0.000000, 0.000000, -8.362919, -5.490209, 0.000000, 1, 1080, 1094, 1150, 1080
0.899701, -0.588036, 18.425331, 0.023518, 0.123700, -0.022449, 26.074249, 2.645425, -44.314529, 7.440118, 4.507074, 174.721802, 0.028337, 0.003923, 0.001405, 79944, 0.000000, 0.000000, 0.000000, 0.000000, -7.440118, -4.507074, 0.000000, 1, 1080, 1094, 1141, 1080
-5.924031, 4.688736, 19.305893, 0.181885, 0.104153, 0.057421, 26.074249, 2.645425, -44.314529, 8.139882, 5.653550, 174.639572, 0.028331, 0.003929, 0.001404, 79940, 0.000000, 0.000000, 0.000000, 0.000000, -8.139882, -5.653550, 0.000000, 1, 1080, 1092, 1150, 1080
-0.264407, 2.925824, -18.765114, -0.102778, 0.189063, 0.075289, 26.074249, 2.645425, -44.314529, 9.235698, 6.496716, 174.730392, 0.028329, 0.003931, 0.001404, 79932, 0.000000, 0.000000, 0.000000, 0.000000, -9.235698, -6.496716, -0.000000, 1, 1080, 1093, 1160, 1080
-6.295516, 1.755135, 5.283352, 0.030543, 0.044135, -0.074678, 26.074249, 2.645425, -44.314529, 9.364438, 7.837834, 174.690887, 0.028321, 0.003939, 0.001404, 79940, 0.000000, 0.000000, 0.000000, 0.000000, -9.364438, -7.837834, 0.000000, 1, 1080, 1087, 1167, 1080
-0.887737, -8.626125, 8.441878, 0.044440, 0.169668, 0.041997, 26.074249, 2.645425, -44.314529, 7.985576, 7.734171, 174.365372, 0.028322, 0.003938, 0.001404, 79924, 0.000000, 0.000000, 0.000000, 0.000000, -7.985576, -7.734171, 0.000000, 1, 1080, 1081, 1160, 1080
4.591228, 7.443473, -1.270589, 0.170126, 0.033292, -0.069180, 26.074249, 2.645425, -44.314529, 9.175500, 6.991249, 174.568069, 0.028321, 0.003940, 0.001404, 79948, 0.000000, 0.000000, 0.000000, 0.000000, -9.175500, -6.991249, -0.000000, 1, 1080, 1091, 1162, 1080
-7.907681, 9.992428, 19.599611, -0.014813, 0.117897, -0.138972, 26.074249, 2.645425, -44.314529, 10.352034, 7.655690, 174.675110, 0.028320, 0.003941, 0.001403, 79932, 0.000000, 0.000000, 0.000000, 0.000000, -10.352034, -7.655690, -0.000000, 1, 1080, 1093, 1172, 1080
-3.394219, -1.802992, 19.599611, -0.101862, 0.028711, 0.081551, 26.074249, 2.645425, -44.314529, 8.984531, 7.420351, 174.279053, 0.028321, 0.003940, 0.001404, 79936, 0.000000, 0.000000, 0.000000, 0.000000, -8.984531, -7.420351, 0.000000, 1, 1080, 1087, 1163, 1080
-2.455036, 2.405983, 18.976280, 0.066890, 0.111636, 0.096975, 26.074249, 2.645425, -44.314529, 8.189338, 6.356903, 173.858444, 0.028316, 0.003944, 0.001404, 79940, 0.000000, 0.000000, 0.000000, 0.000000, -8.189338, -6.356903, 0.000000, 1, 1080, 1089, 1154, 1080
4.247859, -3.192624, 5.729016, 0.335060, 0.225867, -0.003512, 26.074249, 2.645425, -44.314529, 7.356988, 5.330740, 173.673874, 0.028312, 0.003948, 0.001404, 79940, 0.000000, 0.000000, 0.000000, 0.000000, -7.356988, -5.330740, 0.000000, 1, 1080, 1090, 1144, 1080
-2.604588, -8.405986, 5.554938, 0.114843, -0.025656, -0.045509, 26.074249, 2.645425, -44.314529, 5.995412, 5.564594, 173.407486, 0.028313, 0.003948, 0.001404, 79944, 0.000000, 0.000000, 0.000000, 0.000000, -5.995412, -5.564594, 0.000000, 1, 1080, 1082, 1139, 1080
-0.357727, -4.598407, 10.948359, -0.278555, 0.047342, 0.041386, 26.074249, 2.645425, -44.314529, 4.634387, 5.218135, 173.144363, 0.028314, 0.003947, 0.001404, 79932, 0.000000, 0.000000, 0.000000, 0.000000, -4.634387, -5.218135, 0.000000, 1, 1080, 1080, 1130, 1082
6.958328, 0.906282, 10.466206, -0.283289, -0.024435, -0.259465, 26.074249, 2.645425, -44.314529, 4.598372, 3.859503, 173.100174, 0.028306, 0.003955, 0.001403, 79936, 0.000000, 0.000000, 0.000000, 0.000000, -4.598372, -3.859503, 0.000000, 1, 1080, 1083, 1123, 1080
-0.595813, -3.589234, 1.664806, -0.210749, 0.156687, -0.093615, 26.074249, 2.645425, -44.314529, 3.198786, 4.001061, 172.878601, 0.028308, 0.003954, 0.001403, 79960, 0.000000, 0.000000, 0.000000, 0.000000, -3.198786, -4.001061, 0.000000, 1, 1080, 1080, 1116, 1084
8.329416, 0.812363, 10.913066, 0.088117, 0.093310, 0.018479, 26.074249, 2.645425, -44.314529, 3.236337, 2.646743, 172.871826, 0.028300, 0.003962, 0.001403, 79932, 0.000000, 0.000000, 0.000000, 0.000000, -3.236337, -2.646743, 0.000000, 1, 1080, 1083, 1110, 1080
11.580664, 9.037093, -11.216954, -0.029932, -0.009163, -0.036652, 26.074249, 2.645425, -44.314529, 4.154150, 1.625071, 172.960754, 0.028296, 0.003966, 0.001402, 79944, 0.000000, 0.000000, 0.000000, 0.000000, -4.154150, -1.625071, -0.000000, 1, 1080, 1092, 1109, 1080
1.122234, -4.639085, -0.507278, 0.131641, 0.117133, -0.007025, 26.074249, 2.645425, -44.314529, 2.820548, 1.332474, 172.811462, 0.028296, 0.003965, 0.001402, 79932, 0.000000, 0.000000, 0.000000, 0.000000, -2.820548, -1.332474, 0.000000, 1, 1080, 1087, 1101, 1080
-2.086541, 7.447660, 19.599611, 0.023213, 0.139277, 0.012370, 26.074249, 2.645425, -44.314529, 4.201685, 1.359709, 172.928497, 0.028298, 0.003964, 0.001402, 79940, 0.000000, 0.000000, 0.000000, 0.000000, -4.201685, -1.359709, -0.000000, 1, 1080, 1094, 1108, 1080
2.877968, 3.525824, 13.158731, 0.084299, 0.116981, 0.025809, 26.074249, 2.645425, -44.314529, 4.920530, 0.193696, 172.957855, 0.028292, 0.003970, 0.001401, 79944, 0.000000, 0.000000, 0.000000, 0.000000, -4.920530, -0.193696, -0.000000, 1, 1080, 1104, 1106, 1080
1.881357, -3.012564, 1.042672, 0.144011, 0.140652, -0.000611, 26.074249, 2.645425, -44.314529, 3.766186, -0.517044, 172.857285, 0.028291, 0.003971, 0.001401, 79932, 0.000000, 0.000000, 0.000000, 0.000000, -3.766186, 0.517044, 0.000000, 1, 1080, 1101, 1096, 1080
-7.083353, 0.909871, 19.599611, -0.042455, -0.020464, -0.000153, 26.074249, 2.645425, -44.314529, 3.695632, 0.848725, 172.813599, 0.028283, 0.003979, 0.001401, 79940, 0.000000, 0.000000, 0.000000, 0.000000, -3.695632, -0.848725, 0.000000, 1, 1080, 1094, 1103, 1080
3.588037, -0.034696, 4.805984, 0.000000, 0.116217, 0.026573, 26.074249, 2.645425, -44.314529, 3.581442, -0.506800, 172.791702, 0.028275, 0.003987, 0.001400, 79936, 0.000000, 0.000000, 0.000000, 0.000000, -3.581442, 0.506800, 0.000000, 1, 1080, 1100, 1095, 1080
7.380063, 1.838884, 0.513859, -0.024740, -0.020617, -0.039554, 26.074249, 2.645425, -44.314529, 3.888708, -1.845731, 172.796082, 0.028267, 0.003995, 0.001400, 79940, 0.000000, 0.000000, 0.000000, 0.000000, -3.888708, 1.845731, -0.000000, 1, 1080, 1109, 1090, 1080
0.533599, -5.322834, 19.599611, 0.007178, 0.028100, -0.109498, 26.074249, 2.645425, -44.314529, 2.546911, -2.136340, 172.700180, 0.028268, 0.003994, 0.001400, 79936, 0.000000, 0.000000, 0.000000, 0.000000, -2.546911, 2.136340, 0.000000, 1, 1080, 1103, 1082, 1080
-0.848256, -8.866006, 7.972885, 0.098044, -0.111483, 0.092088, 26.074249, 2.645425, -44.314529, 1.182398, -2.064586, 172.648911, 0.028269, 0.003993, 0.001399, 79936, 0.000000, 0.000000, 0.000000, 0.000000, -1.182398, 2.064586, 0.000000, 1, 1084, 1096, 1080, 1080
-4.343571, -6.218946, 3.945167, -0.029780, 0.112094, 0.013897, 26.074249, 2.645425, -44.314529, 0.041460, -1.285890, 172.600601, 0.028268, 0.003995, 0.001399, 79944, 0.000000, 0.000000, 0.000000, 0.000000, -0.041460, 1.285890, 0.000000, 1, 1086, 1086, 1080, 1080
5.182854, -3.245864, 5.173283, -0.107512, 0.056047, 0.059559, 26.074249, 2.645425, -44.314529, -0.638714, -2.479702, 172.586884, 0.028262, 0.004001, 0.001398, 79936, 0.000000, 0.000000, 0.000000, 0.000000, 0.638714, 2.479702, 0.000000, 1, 1095, 1089, 1080, 1080
2.561517, -0.852443, 19.599611, 0.202349, -0.011912, -0.146760, 26.074249, 2.645425, -44.314529, -0.578293, -3.851851, 172.653946, 0.028254, 0.004009, 0.001398, 79940, 0.000000, 0.000000, 0.000000, 0.000000, 0.578293, 3.851851, -0.000000, 1, 1102, 1096, 1080, 1080
2.022533, 5.396413, 6.563512, 0.024740, 0.015424, -0.033750, 26.074249, 2.645425, -44.314529, 0.716289, -4.315388, 172.676331, 0.028254, 0.004009, 0.001398, 79936, 0.000000, 0.000000, 0.000000, 0.000000, -0.716289, 4.315388, -0.000000, 1, 1098, 1105, 1080, 1080
-8.878569, -4.231707, 9.521042, -0.014508, 0.065515, -0.027489, 26.074249, 2.645425, -44.314529, 0.147671, -3.059003, 172.677719, 0.028248, 0.004016, 0.001397, 79936, 0.000000, 0.000000, 0.000000, 0.000000, -0.147671, 3.059003, -0.000000, 1, 1094, 1096, 1080, 1080
-3.382255, 3.988836, 15.008383, 0.032834, 0.108123, 0.006567, 26.074249, 2.645425, -44.314529, 1.282437, -2.271099, 172.737625, 0.028246, 0.004018, 0.001397, 79952, 0.000000, 0.000000, 0.000000, 0.000000, -1.282437, 2.271099, -0.000000, 1, 1085, 1098, 1080, 1080
-0.245863, 12.354143, -15.355341, -0.037110, 0.242514, 0.150120, 26.074249, 2.645425, -44.314529, 2.651689, -2.163532, 172.804565, 0.028248, 0.004017, 0.001396, 79924, 0.000000, 0.000000, 0.000000, 0.000000, -2.651689, 2.163532, -0.000000, 1, 1080, 1104, 1082, 1080
1.472184, -6.226723, 13.931612, 0.147371, -0.006261, 0.061392, 26.074249, 2.645425, -44.314529, 1.347685, -2.560682, 172.754257, 0.028248, 0.004017, 0.001396, 79936, 0.000000, 0.000000, 0.000000, 0.000000, -1.347685, 2.560682, 0.000000, 1, 1086, 1099, 1080, 1080
-8.280363, 1.894517, 9.728021, -0.032987, 0.131794, 0.104000, 26.074249, 2.645425, -44.314529, 1.665381, -1.215129, 172.780045, 0.028240, 0.004024, 0.001396, 79940, 0.000000, 0.000000, 0.000000, 0.000000, -1.665381, 1.215129, -0.000000, 1, 1080, 1094, 1082, 1080
2.263012, -6.369694, 16.709679, 0.010537, 0.066584, 0.038637, 26.074249, 2.645425, -44.314529, 0.429856, -1.811841, 172.721893, 0.028240, 0.004025, 0.001395, 79944, 0.000000, 0.000000, 0.000000, 0.000000, -0.429856, 1.811841, 0.000000, 1, 1087, 1091, 1080, 1080
3.252445, -0.641875, 17.748762, 0.034972, 0.194866, 0.045357, 26.074249, 2.645425, -44.314529, 0.347666, -3.166812, 172.751068, 0.028232, 0.004033, 0.001395, 79944, 0.000000, 0.000000, 0.000000, 0.000000, -0.347666, 3.166812, -0.000000, 1, 1094, 1097, 1080, 1080
2.160120, -2.024328, 10.360922, 0.105222, 0.022755, -0.029780, 26.074249, 2.645425, -44.314529, -0.465693, -4.266092, 172.768326, 0.028227, 0.004038, 0.001395, 79944, 0.000000, 0.000000, 0.000000, 0.000000, 0.465693, 4.266092, -0.000000, 1, 1104, 1099, 1080, 1080
-6.900901, -0.206381, 13.453048, -0.032376, 0.180358, 0.073762, 26.074249, 2.645425, -44.314529, -0.383094, -2.880435, 172.803345, 0.028219, 0.004046, 0.001394, 79940, 0.000000, 0.000000, 0.000000, 0.000000, 0.383094, 2.880435, -0.000000, 1, 1096, 1092, 1080, 1080
-6.269794, -12.787244, 19.599611, 0.056810, -0.057269, -0.096211, 26.074249, 2.645425, -44.314529, -1.613254, -2.284627, 172.778152, 0.028219, 0.004047, 0.001394, 79936, 0.000000, 0.000000, 0.000000, 0.000000, 1.613254, 2.284627, 0.000000, 1, 1099, 1083, 1080, 1080
-7.612167, -1.400399, -3.437888, -0.143859, 0.165392, 0.120035, 26.074249, 2.645425, -44.314529, -1.865046, -0.920268, 172.793243, 0.028211, 0.004055, 0.001393, 79932, 0.000000, 0.000000, 0.000000, 0.000000, 1.865046, 0.920268, -0.000000, 1, 1094, 1080, 1080, 1084
-1.949552, 9.870992, 19.488344, 0.109650, 0.130725, 0.117439, 26.074249, 2.645425, -44.314529, -0.484103, -0.808658, 172.916183, 0.028213, 0.004054, 0.001393, 79940, 0.000000, 0.000000, 0.000000, 0.000000, 0.484103, 0.808658, -0.000000, 1, 1086, 1081, 1080, 1080
7.132406, -3.208177, 6.895517, 0.134543, -0.058185, 0.021533, 26.074249, 2.645425, -44.314529, -0.961860, -2.096782, 172.905304, 0.028206, 0.004061, 0.001393, 79940, 0.000000, 0.000000, 0.000000, 0.000000, 0.961860, 2.096782, 0.000000, 1, 1095, 1085, 1080, 1080
4.027719, 3.439682, 4.713263, -0.132252, 0.075136, -0.052076, 26.074249, 2.645425, -44.314529, -0.059077, -3.116212, 172.944855, 0.028202, 0.004065, 0.001392, 79952, 0.000000, 0.000000, 0.000000, 0.000000, 0.059077, 3.116212, -0.000000, 1, 1096, 1095, 1080, 1080
7.412367, 5.951548, 9.699904, -0.136376, 0.056200, -0.064141, 26.074249, 2.645425, -44.314529, 0.808516, -4.167736, 172.963226, 0.028198, 0.004069, 0.001392, 79928, 0.000000, 0.000000, 0.000000, 0.000000, -0.808516, 4.167736, -0.000000, 1, 1097, 1105, 1080, 1080
-2.333600, -7.882556, 13.639089, 0.011759, -0.023976, 0.090103, 26.074249, 2.645425, -44.314529, -0.506263, -3.774636, 172.973312, 0.028198, 0.004069, 0.001391, 79936, 0.000000, 0.000000, 0.000000, 0.000000, 0.506263, 3.774636, -0.000000, 1, 1101, 1096, 1080, 1080
-2.473580, 12.748362, 7.304689, -0.066890, 0.106291, 0.097128, 26.074249, 2.645425, -44.314529, 0.839850, -3.517884, 173.010666, 0.028199, 0.004068, 0.001391, 79940, 0.000000, 0.000000, 0.000000, 0.000000, -0.839850, 3.517884, -0.000000, 1, 1093, 1102, 1080, 1080
1.744368, 6.294919, 9.311669, 0.093310, 0.262977, -0.049327, 26.074249, 2.645425, -44.314529, 2.166500, -3.881176, 173.029709, 0.028200, 0.004067, 0.001391, 79936, 0.000000, 0.000000, 0.000000, 0.000000, -2.166500, 3.881176, -0.000000, 1, 1088, 1110, 1080, 1080
-3.356532, -5.877969, 4.495515, -0.036805, 0.096211, -0.049022, 26.074249, 2.645425, -44.314529, 0.962296, -3.205992, 173.007172, 0.028199, 0.004068, 0.001390, 79940, 0.000000, 0.000000, 0.000000, 0.000000, -0.962296, 3.205992, 0.000000, 1, 1091, 1101, 1080, 1080
2.909074, 8.671589, 17.799011, 0.130572, 0.060628, -0.002138, 26.074249, 2.645425, -44.314529, 2.262614, -3.675152, 173.035873, 0.028199, 0.004068, 0.001390, 79940, 0.000000, 0.000000, 0.000000, 0.000000, -2.262614, 3.675152, -0.000000, 1, 1087, 1110, 1080, 1080
-11.218150, 4.493123, -10.841282, -0.090713, 0.047953, -0.016646, 26.074249, 2.645425, -44.314529, 2.776509, -2.400553, 173.043320, 0.028193, 0.004075, 0.001390, 79936, 0.000000, 0.000000, 0.000000, 0.000000, -2.776509, 2.400553, -0.000000, 1, 1080, 1106, 1081, 1080
6.452246, -10.100104, 6.122037, -0.014661, -0.036957, -0.021838, 26.074249, 2.645425, -44.314529, 1.619661, -3.146462, 173.003784, 0.028191, 0.004077, 0.001389, 79940, 0.000000, 0.000000, 0.000000, 0.000000, -1.619661, 3.146462, 0.000000, 1, 1087, 1104, 1080, 1080
-1.368695, 0.872184, -0.428315, 0.044135, 0.199295, -0.021686, 26.074249, 2.645425, -44.314529, 2.361251, -1.972184, 173.025925, 0.028186, 0.004082, 0.001389, 79940, 0.000000, 0.000000, 0.000000, 0.000000, -2.361251, 1.972184, -0.000000, 1, 1080, 1102, 1081, 1080
-4.888536, 4.325027, -9.959526, -0.059559, 0.250913, 0.040928, 26.074249, 2.645425, -44.314529, 3.244041, -0.904802, 173.068207, 0.028182, 0.004087, 0.001388, 79940, 0.000000, 0.000000, 0.000000, 0.000000, -3.244041, 0.904802, -0.000000, 1, 1080, 1101, 1091, 1080
5.942575, 0.719043, 9.345169, 0.049786, -0.043677, -0.025656, 26.074249, 2.645425, -44.314529, 3.301691, -2.279784, 173.054153, 0.028174, 0.004095, 0.001388, 79940, 0.000000, 0.000000, 0.000000, 0.000000, -3.301691, 2.279784, 0.000000, 1, 1080, 1108, 1085, 1080
-5.981459, 8.847462, 19.042084, 0.078191, 0.125991, 0.013592, 26.074249, 2.645425, -44.314529, 4.451713, -1.511946, 173.085510, 0.028173, 0.004097, 0.001388, 79940, 0.000000, 0.000000, 0.000000, 0.000000, -4.451713, 1.511946, -0.000000, 1, 1080, 1110, 1095, 1080
-10.510474, 3.920042, -5.070391, -0.146760, 0.157298, -0.071471, 26.074249, 2.645425, -44.314529, 4.917219, -0.214529, 173.094055, 0.028166, 0.004104, 0.001387, 79940, 0.000000, 0.000000, 0.000000, 0.000000, -4.917219, 0.214529, -0.000000, 1, 1080, 1106, 1104, 1080
-0.401994, 0.414557, 19.599611, -0.121715, 0.136376, 0.061545, 26.074249, 2.645425, -44.314529, 3.862147, -1.074036, 172.843628, 0.028163, 0.004106, 0.001387, 79944, 0.000000, 0.000000, 0.000000, 0.000000, -3.862147, 1.074036, 0.000000, 1, 1080, 1105, 1094, 1080
6.116055, -6.004190, 19.599611, 0.095753, 0.025656, -0.080481, 26.074249, 2.645425, -44.314529, 2.901219, -2.044425, 172.767670, 0.028160, 0.004110, 0.001387, 79948, 0.000000, 0.000000, 0.000000, 0.000000, -2.901219, 2.044425, 0.000000, 1, 1080, 1105, 1084, 1080
-2.682354, -5.656632, 19.599611, 0.054825, -0.032987, -0.059254, 26.074249, 2.645425, -44.314529, 1.586222, -1.660235, 172.688324, 0.028160, 0.004109, 0.001386, 79912, 0.000000, 0.000000, 0.000000, 0.000000, -1.586222, 1.660235, 0.000000, 1, 1080, 1096, 1080, 1080
-1.055833, -2.078765, 14.519648, -0.089186, -0.023060, -0.062156, 26.074249, 2.645425, -44.314529, 0.223610, -1.426194, 172.622482, 0.028162, 0.004109, 0.001386, 79948, 0.000000, 0.000000, 0.000000, 0.000000, -0.223610, 1.426194, 0.000000, 1, 1086, 1088, 1080, 1080
1.971686, -0.791426, 14.633307, 0.026573, 0.164934, -0.050091, 26.074249, 2.645425, -44.314529, 0.026607, -2.771394, 172.649841, 0.028154, 0.004116, 0.001386, 79944, 0.000000, 0.000000, 0.000000, 0.000000, -0.026607, 2.771394, -0.000000, 1, 1094, 1094, 1080, 1080
6.449854, 4.169494, -13.181462, -0.148288, 0.029932, -0.031307, 26.074249, 2.645425, -44.314529, 0.782069, -3.908318, 172.680374, 0.028149, 0.004121, 0.001385, 79940, 0.000000, 0.000000, 0.000000, 0.000000, -0.782069, 3.908318, -0.000000, 1, 1095, 1103, 1080, 1080
-1.619941, -1.229911, 17.533407, 0.117133, 0.008399, -0.011759, 26.074249, 2.645425, -44.314529, 0.053064, -2.751002, 172.730850, 0.028143, 0.004127, 0.001385, 79936, 0.000000, 0.000000, 0.000000, 0.000000, -0.053064, 2.751002, -0.000000, 1, 1093, 1094, 1080, 1080
-5.571687, -2.845664, -1.464408, -0.022755, 0.062614, -0.037568, 26.074249, 2.645425, -44.314529, -0.561695, -1.517490, 172.713333, 0.028137, 0.004133, 0.001384, 79944, 0.000000, 0.000000, 0.000000, 0.000000, 0.561695, 1.517490, 0.000000, 1, 1090, 1084, 1080, 1080
4.037290, 3.699902, -6.843473, -0.022755, 0.047342, -0.031612, 26.074249, 2.645425, -44.314529, 0.399164, -2.492141, 172.768356, 0.028134, 0.004137, 0.001384, 79928, 0.000000, 0.000000, 0.000000, 0.000000, -0.399164, 2.492141, -0.000000, 1, 1090, 1094, 1080, 1080
0.407976, -1.794617, 7.792227, -0.028558, 0.053145, -0.029016, 26.074249, 2.645425, -44.314529, -0.877103, -3.003266, 172.762589, 0.028134, 0.004137, 0.001384, 79948, 0.000000, 0.000000, 0.000000, 0.000000, 0.877103, 3.003266, 0.000000, 1, 1099, 1090, 1080, 1080
-7.649854, -0.913460, 4.654638, -0.013134, -0.031612, 0.017257, 26.074249, 2.645425, -44.314529, -0.983712, -1.636630, 172.776657, 0.028126, 0.004145, 0.001383, 79948, 0.000000, 0.000000, 0.000000, 0.000000, 0.983712, 1.636630, -0.000000, 1, 1093, 1083, 1080, 1080
-10.006186, 1.135394, 8.627921, 0.158520, 0.112705, 0.091172, 26.074249, 2.645425, -44.314529, -0.731267, -0.276363, 172.815277, 0.028119, 0.004153, 0.001383, 79928, 0.000000, 0.000000, 0.000000, 0.000000, 0.731267, 0.276363, -0.000000, 1, 1085, 1080, 1080, 1082
9.163314, -1.328017, 15.521045, 0.136528, 0.247248, -0.088728, 26.074249, 2.645425, -44.314529, -0.793047, -1.626631, 172.821045, 0.028111, 0.004161, 0.001383, 79936, 0.000000, 0.000000, 0.000000, 0.000000, 0.793047, 1.626631, -0.000000, 1, 1092, 1084, 1080, 1080
4.619942, -5.327620, 6.830911, 0.018479, 0.107360, -0.150578, 26.074249, 2.645425, -44.314529, -1.763638, -2.590854, 172.787399, 0.028107, 0.004164, 0.001382, 79940, 0.000000, 0.000000, 0.000000, 0.000000, 1.763638, 2.590854, 0.000000, 1, 1102, 1084, 1080, 1080
7.967501, 4.241278, 15.448064, 0.044135, 0.065057, 0.007483, 26.074249, 2.645425, -44.314529, -1.013192, -3.737128, 172.834488, 0.028102, 0.004169, 0.001382, 79936, 0.000000, 0.000000, 0.000000, 0.000000, 1.013192, 3.737128, -0.000000, 1, 1104, 1093, 1080, 1080
6.741778, -2.267200, 4.331009, -0.023824, -0.032529, -0.125227, 26.074249, 2.645425, -44.314529, -1.393535, -5.061020, 172.842758, 0.028095, 0.004177, 0.001381, 79948, 0.000000, 0.000000, 0.000000, 0.000000, 1.393535, 5.061020, -0.000000, 1, 1112, 1098, 1080, 1080
-6.953543, -0.037089, -4.995017, -0.067653, -0.037874, 0.036805, 26.074249, 2.645425, -44.314529, -1.413024, -3.690228, 172.868729, 0.028087, 0.004185, 0.001381, 79932, 0.000000, 0.000000, 0.000000, 0.000000, 1.413024, 3.690228, -0.000000, 1, 1106, 1091, 1080, 1080
-8.093722, -5.938986, 12.077771, -0.178984, 0.198226, -0.016188, 26.074249, 2.645425, -44.314529, -2.160955, -2.514549, 172.878815, 0.028082, 0.004190, 0.001381, 79936, 0.000000, 0.000000, 0.000000, 0.000000, 2.160955, 2.514549, -0.000000, 1, 1103, 1081, 1080, 1080
1.966900, 6.845866, 0.035892, 0.209679, 0.131336, -0.025656, 26.074249, 2.645425, -44.314529, -0.821798, -2.870760, 172.932938, 0.028083, 0.004190, 0.001380, 79936, 0.000000, 0.000000, 0.000000, 0.000000, 0.821798, 2.870760, -0.000000, 1, 1098, 1090, 1080, 1080
-0.637089, -4.836493, -2.754139, 0.030543, 0.069791, -0.047647, 26.074249, 2.645425, -44.314529, -2.177864, -2.665964, 172.906357, 0.028084, 0.004189, 0.001380, 79944, 0.000000, 0.000000, 0.000000, 0.000000, 2.177864, 2.665964, 0.000000, 1, 1104, 1082, 1080, 1080
-1.749752, -1.814358, 12.017951, 0.047800, -0.014813, -0.093004, 26.074249, 2.645425, -44.314529, -2.836902, -1.475802, 173.018890, 0.028078, 0.004194, 0.001380, 79936, 0.000000, 0.000000, 0.000000, 0.000000, 2.836902, 1.475802, -0.000000, 1, 1102, 1080, 1080, 1086
-3.711866, -3.960720, 18.493528, -0.193644, -0.059559, -0.064752, 26.074249, 2.645425, -44.314529, -3.669236, -0.388268, 173.079193, 0.028074, 0.004199, 0.001379, 79936, 0.000000, 0.000000, 0.000000, 0.000000, 3.669236, 0.388268, -0.000000, 1, 1100, 1080, 1080, 1096
-2.229512, 0.851845, -9.092726, -0.090408, 0.073762, 0.085521, 26.074249, 2.645425, -44.314529, -3.486717, 0.976536, 173.175705, 0.028066, 0.004207, 0.001379, 79944, 0.000000, 0.000000, 0.000000, 0.000000, 3.486717, -0.976536, -0.000000, 1, 1092, 1080, 1080, 1102
-1.350150, -7.273583, -0.365504, -0.003971, 0.036194, -0.135612, 26.074249, 2.645425, -44.314529, -4.837327, 1.230973, 173.057343, 0.028067, 0.004206, 0.001379, 79940, 0.000000, 0.000000, 0.000000, 0.000000, 4.837327, -1.230973, 0.000000, 1, 1098, 1080, 1080, 1111
11.415559, -2.951547, -16.695919, -0.138514, 0.173638, 0.023518, 26.074249, 2.645425, -44.314529, -5.352805, -0.029031, 173.065018, 0.028061, 0.004213, 0.001378, 79944, 0.000000, 0.000000, 0.000000, 0.000000, 5.352805, 0.029031, -0.000000, 1, 1107, 1080, 1080, 1107
-3.384648, 13.968102, -4.383651, -0.033292, -0.063530, 0.109039, 26.074249, 2.645425, -44.314529, -4.029875, 0.324833, 173.209244, 0.028061, 0.004212, 0.001378, 79960, 0.000000, 0.000000, 0.000000, 0.000000, 4.029875, -0.324833, -0.000000, 1, 1098, 1080, 1080, 1102
-6.815358, -4.936393, 4.915456, 0.113468, -0.245721, 0.095448, 26.074249, 2.645425, -44.314529, -4.763934, 1.449508, 173.180832, 0.028056, 0.004217, 0.001377, 79920, 0.000000, 0.000000, 0.000000, 0.000000, 4.763934, -1.449508, 0.000000, 1, 1096, 1080, 1080, 1111
7.215556, -0.474975, 8.601600, -0.092852, 0.119577, 0.101098, 26.074249, 2.645425, -44.314529, -4.623782, 0.101100, 173.235886, 0.028048, 0.004225, 0.001377, 79936, 0.000000, 0.000000, 0.000000, 0.000000, 4.623782, -0.101100, -0.000000, 1, 1103, 1080, 1080, 1104
10.903495, 8.446066, 19.599611, -0.080940, 0.301309, -0.032834, 26.074249, 2.645425, -44.314529, -3.704321, -0.879413, 173.332352, 0.028045, 0.004228, 0.001377, 79948, 0.000000, 0.000000, 0.000000, 0.000000, 3.704321, 0.879413, -0.000000, 1, 1103, 1080, 1080, 1094
-2.457429, -2.919244, -1.202992, -0.069486, 0.265421, -0.038485, 26.074249, 2.645425, -44.314529, -4.741223, 0.039599, 173.281174, 0.028042, 0.004231, 0.001376, 79932, 0.000000, 0.000000, 0.000000, 0.000000, 4.741223, -0.039599, 0.000000, 1, 1104, 1080, 1080, 1104
-1.072583, -12.044871, 3.533601, -0.055741, 0.055589, -0.017104, 26.074249, 2.645425, -44.314529, -6.111977, 0.130454, 173.204193, 0.028043, 0.004230, 0.001376, 79948, 0.000000, 0.000000, 0.000000, 0.000000, 6.111977, -0.130454, 0.000000, 1, 1110, 1080, 1080, 1111
1.161117, 8.420941, 6.145965, 0.037568, 0.320093, 0.023518, 26.074249, 2.645425, -44.314529, -4.760760, -0.061798, 173.341156, 0.028044, 0.004229, 0.001376, 79932, 0.000000, 0.000000, 0.000000, 0.000000, 4.760760, 0.061798, -0.000000, 1, 1104, 1080, 1080, 1104
-3.225525, -3.761517, 8.681160, -0.116523, 0.335060, -0.128129, 26.074249, 2.645425, -44.314529, -5.714040, 0.945479, 173.325272, 0.028041, 0.004233, 0.001375, 79936, 0.000000, 0.000000, 0.000000, 0.000000, 5.714040, -0.945479, 0.000000, 1, 1104, 1080, 1080, 1114
-9.695119, -4.037888, 19.599611, 0.171500, 0.071929, -0.177762, 26.074249, 2.645425, -44.314529, -5.809870, 2.307682, 173.383408, 0.028033, 0.004241, 0.001375, 79936, 0.000000, 0.000000, 0.000000, 0.000000, 5.809870, -2.307682, -0.000000, 1, 1097, 1080, 1080, 1121
5.741578, -14.475980, -15.143576, -0.131794, -0.003512, 0.001069, 26.074249, 2.645425, -44.314529, -7.149649, 1.943508, 173.272232, 0.028034, 0.004240, 0.001375, 79932, 0.000000, 0.000000, 0.000000, 0.000000, 7.149649, -1.943508, 0.000000, 1, 1106, 1080, 1080, 1126
-0.830309, 10.794023, -10.930414, 0.006414, 0.067195, -0.160658, 26.074249, 2.645425, -44.314529, -5.814165, 2.232188, 173.460190, 0.028035, 0.004239, 0.001374, 79940, 0.000000, 0.000000, 0.000000, 0.000000, 5.814165, -2.232188, -0.000000, 1, 1098, 1080, 1080, 1121
3.556931, 4.423133, 0.489332, -0.049327, 0.133932, -0.010079, 26.074249, 2.645425, -44.314529, -4.728418, 1.428746, 173.602005, 0.028033, 0.004241, 0.001374, 79940, 0.000000, 0.000000, 0.000000, 0.000000, 4.728418, -1.428746, -0.000000, 1, 1096, 1080, 1080, 1111
5.806184, 2.218745, 3.741178, -0.002443, -0.051618, 0.043371, 26.074249, 2.645425, -44.314529, -4.148360, 0.190605, 173.683701, 0.028027, 0.004248, 0.001374, 79936, 0.000000, 0.000000, 0.000000, 0.000000, 4.148360, -0.190605, -0.000000, 1, 1100, 1080, 1080, 1102
-10.572687, 5.318048, 9.991232, -0.058948, 0.190590, -0.110872, 26.074249, 2.645425, -44.314529, -3.369998, 1.335042, 173.773178, 0.028022, 0.004253, 0.001373, 79948, 0.000000, 0.000000, 0.000000, 0.000000, 3.369998, -1.335042, -0.000000, 1, 1090, 1080, 1080, 1104
-12.314064, 2.887539, 3.223132, 0.098349, 0.183260, 0.007636, 26.074249, 2.645425, -44.314529, -2.974123, 2.663763, 173.834366, 0.028015, 0.004260, 0.001373, 79936, 0.000000, 0.000000, 0.000000, 0.000000, 2.974123, -2.663763, -0.000000, 1, 1081, 1080, 1080, 1108
-1.274178, 6.484549, 11.109876, -0.056352, 0.117439, -0.075900, 26.074249, 2.645425, -44.314529, -1.597691, 2.667453, 174.021225, 0.028016, 0.004259, 0.001373, 79944, 0.000000, 0.000000, 0.000000, 0.000000, 1.597691, -2.667453, -0.000000, 1, 1080, 1080, 1085, 1101
6.552147, -5.428717, -5.356932, -0.069639, 0.104000, -0.019242, 26.074249, 2.645425, -44.314529, -2.549573, 1.676670, 173.922867, 0.028013, 0.004263, 0.001373, 79936, 0.000000, 0.000000, 0.000000, 0.000000, 2.549573, -1.676670, 0.000000, 1, 1084, 1080, 1080, 1101
-3.630510, 2.023132, 14.010575, 0.013439, 0.148593, 0.011301, 26.074249, 2.645425, -44.314529, -1.398163, 2.448693, 174.102844, 0.028012, 0.004264, 0.001372, 79936, 0.000000, 0.000000, 0.000000, 0.000000, 1.398163, -2.448693, -0.000000, 1, 1080, 1080, 1085, 1099
-9.926027, 5.974280, 19.599611, 0.095448, 0.278249, -0.042608, 26.074249, 2.645425, -44.314529, -0.442084, 3.467257, 174.236389, 0.028008, 0.004268, 0.001372, 79944, 0.000000, 0.000000, 0.000000, 0.000000, 0.442084, -3.467257, -0.000000, 1, 1080, 1080, 1095, 1099
4.850252, -3.260221, -12.216557, -0.036194, 0.168904, -0.125227, 26.074249, 2.645425, -44.314529, -1.473769, 2.569325, 174.103333, 0.028006, 0.004271, 0.001372, 79944, 0.000000, 0.000000, 0.000000, 0.000000, 1.473769, -2.569325, 0.000000, 1, 1080, 1080, 1085, 1100
-1.744368, 2.012962, 6.871589, -0.002596, -0.010232, 0.021686, 26.074249, 2.645425, -44.314529, -0.178881, 3.054265, 174.289551, 0.028006, 0.004271, 0.001372, 79928, 0.000000, 0.000000, 0.000000, 0.000000, 0.178881, -3.054265, -0.000000, 1, 1080, 1080, 1094, 1096
-6.120841, -6.795617, -1.689333, -0.006720, 0.115454, 0.017257, 26.074249, 2.645425, -44.314529, -1.194139, 3.988446, 174.154099, 0.028003, 0.004274, 0.001371, 79952, 0.000000, 0.000000, 0.000000, 0.000000, 1.194139, -3.988446, 0.000000, 1, 1080, 1080, 1094, 1106
-7.300502, -5.922834, 14.541183, 0.116523, -0.096975, 0.016646, 26.074249, 2.645425, -44.314529, -2.161159, 4.937645, 174.020401, 0.028000, 0.004277, 0.001371, 79928, 0.000000, 0.000000, 0.000000, 0.000000, 2.161159, -4.937645, 0.000000, 1, 1080, 1080, 1094, 1116
1.238884, -0.313460, 2.606981, -0.000305, 0.158520, 0.018173, 26.074249, 2.645425, -44.314529, -2.253529, 3.593293, 174.023163, 0.027992, 0.004285, 0.001371, 79940, 0.000000, 0.000000, 0.000000, 0.000000, 2.253529, -3.593293, -0.000000, 1, 1080, 1080, 1086, 1109
-10.361521, 2.301895, 12.129219, -0.139125, 0.168141, 0.034514, 26.074249, 2.645425, -44.314529, -1.766751, 4.879210, 174.117569, 0.027985, 0.004292, 0.001370, 79940, 0.000000, 0.000000, 0.000000, 0.000000, 1.766751, -4.879210, -0.000000, 1, 1080, 1080, 1095, 1113
1.662413, -5.935397, 6.025726, -0.003054, 0.284510, -0.061697, 26.074249, 2.645425, -44.314529, -3.020016, 4.303279, 173.927597, 0.027985, 0.004292, 0.001370, 79940, 0.000000, 0.000000, 0.000000, 0.000000, 3.020016, -4.303279, 0.000000, 1, 1080, 1080, 1086, 1117
-2.057827, -5.475376, 13.003796, 0.042150, 0.155771, 0.212734, 26.074249, 2.645425, -44.314529, -4.396999, 4.327325, 173.780136, 0.027987, 0.004291, 0.001370, 79932, 0.000000, 0.000000, 0.000000, 0.000000, 4.396999, -4.327325, 0.000000, 1, 1080, 1080, 1080, 1124
3.103491, -0.619741, 7.616355, 0.181274, 0.057574, 0.028405, 26.074249, 2.645425, -44.314529, -4.251596, 2.978624, 173.835800, 0.027979, 0.004298, 0.001369, 79948, 0.000000, 0.000000, 0.000000, 0.000000, 4.251596, -2.978624, -0.000000, 1, 1086, 1080, 1080, 1116
-5.954539, -1.733600, 9.825528, -0.024435, -0.130114, -0.021380, 26.074249, 2.645425, -44.314529, -4.372151, 4.320929, 173.866898, 0.027971, 0.004306, 0.001369, 79932, 0.000000, 0.000000, 0.000000, 0.000000, 4.372151, -4.320929, -0.000000, 1, 1080, 1080, 1080, 1124
-8.765508, 0.703490, 8.191231, 0.058796, -0.002902, -0.017104, 26.074249, 2.645425, -44.314529, -4.026196, 5.640082, 173.949371, 0.027964, 0.004313, 0.001369, 79944, 0.000000, 0.000000, 0.000000, 0.000000, 4.026196, -5.640082, -0.000000, 1, 1080, 1080, 1088, 1129
6.312266, -5.094917, 18.051453, 0.073762, 0.202196, -0.005192, 26.074249, 2.645425, -44.314529, -4.419248, 4.350673, 173.913437, 0.027957, 0.004320, 0.001368, 79944, 0.000000, 0.000000, 0.000000, 0.000000, 4.419248, -4.350673, 0.000000, 1, 1080, 1080, 1080, 1124
4.998606, -2.941377, 19.599611, -0.011301, -0.055283, 0.040623, 26.074249, 2.645425, -44.314529, -4.475911, 2.985691, 173.956390, 0.027949, 0.004328, 0.001368, 79940, 0.000000, 0.000000, 0.000000, 0.000000, 4.475911, -2.985691, -0.000000, 1, 1087, 1080, 1080, 1118
-8.549555, -2.866602, 18.946968, -0.075900, 0.009163, -0.090408, 26.074249, 2.645425, -44.314529, -4.539592, 4.341580, 174.010651, 0.027942, 0.004336, 0.001368, 79932, 0.000000, 0.000000, 0.000000, 0.000000, 4.539592, -4.341580, -0.000000, 1, 1081, 1080, 1080, 1125
2.245066, -15.080766, 11.585448, -0.023671, 0.148898, -0.034056, 26.074249, 2.645425, -44.314529, -5.863293, 3.936534, 173.837769, 0.027942, 0.004335, 0.001367, 79944, 0.000000, 0.000000, 0.000000, 0.000000, 5.863293, -3.936534, 0.000000, 1, 1089, 1080, 1080, 1130
-4.269992, 2.751148, 19.599611, 0.159589, -0.074526, 0.107360, 26.074249, 2.645425, -44.314529, -4.503276, 4.249568, 174.125412, 0.027944, 0.004335, 0.001367, 79936, 0.000000, 0.000000, 0.000000, 0.000000, 4.503276, -4.249568, -0.000000, 1, 1081, 1080, 1080, 1124
-7.572686, -14.261223, 16.361523, -0.090103, -0.098197, 0.073151, 26.074249, 2.645425, -44.314529, -5.779613, 4.756342, 173.969727, 0.027944, 0.004335, 0.001367, 79940, 0.000000, 0.000000, 0.000000, 0.000000, 5.779613, -4.756342, 0.000000, 1, 1085, 1080, 1080, 1133
3.927220, 11.344372, -6.096314, 0.015577, 0.194713, -0.038943, 26.074249, 2.645425, -44.314529, -4.449302, 4.447275, 174.198273, 0.027945, 0.004334, 0.001367, 79936, 0.000000, 0.000000, 0.000000, 0.000000, 4.449302, -4.447275, -0.000000, 1, 1080, 1080, 1080, 1125
1.987239, -4.165904, 18.492929, 0.048106, -0.054520, -0.069333, 26.074249, 2.645425, -44.314529, -4.903955, 3.152389, 174.194763, 0.027938, 0.004341, 0.001367, 79944, 0.000000, 0.000000, 0.000000, 0.000000, 4.903955, -3.152389, 0.000000, 1, 1088, 1080, 1080, 1121
0.969093, -13.725230, 3.731009, -0.072846, 0.103694, 0.046884, 26.074249, 2.645425, -44.314529, -6.277276, 2.984898, 174.044891, 0.027939, 0.004340, 0.001366, 79936, 0.000000, 0.000000, 0.000000, 0.000000, 6.277276, -2.984898, 0.000000, 1, 1096, 1080, 1080, 1127
-4.211966, 10.543375, -13.548162, 0.014966, -0.030391, -0.060476, 26.074249, 2.645425, -44.314529, -5.108568, 3.714076, 174.239975, 0.027938, 0.004341, 0.001366, 79932, 0.000000, 0.000000, 0.000000, 0.000000, 5.108568, -3.714076, -0.000000, 1, 1087, 1080, 1080, 1125
-13.683954, 2.728416, 12.290733, 0.125227, 0.119424, -0.022449, 26.074249, 2.645425, -44.314529, -4.582773, 4.991550, 174.346268, 0.027932, 0.004348, 0.001366, 79936, 0.000000, 0.000000, 0.000000, 0.000000, 4.582773, -4.991550, -0.000000, 1, 1080, 1080, 1082, 1128
-2.534597, -1.938785, 19.599611, 0.033903, -0.115912, 0.018479, 26.074249, 2.645425, -44.314529, -3.628522, 4.047909, 174.836761, 0.027928, 0.004351, 0.001367, 79944, 0.000000, 0.000000, 0.000000, 0.000000, 3.628522, -4.047909, -0.000000, 1, 1080, 1080, 1082, 1119
-3.169294, -1.773680, -2.468795, -0.178220, 0.243583, -0.015882, 26.074249, 2.645425, -44.314529, -4.293170, 5.262152, 174.747589, 0.027923, 0.004357, 0.001366, 79940, 0.000000, 0.000000, 0.000000, 0.000000, 4.293170, -5.262152, 0.000000, 1, 1080, 1080, 1084, 1128
0.028714, 1.329811, 15.037693, 0.146913, -0.146302, 0.005498, 26.074249, 2.645425, -44.314529, -3.198493, 4.413969, 174.978928, 0.027921, 0.004359, 0.001366, 79936, 0.000000, 0.000000, 0.000000, 0.000000, 3.198493, -4.413969, -0.000000, 1, 1080, 1080, 1086, 1118
9.175877, 1.451247, 11.548361, 0.004581, 0.185703, -0.039095, 26.074249, 2.645425, -44.314529, -2.871893, 3.110000, 175.036423, 0.027914, 0.004366, 0.001366, 79940, 0.000000, 0.000000, 0.000000, 0.000000, 2.871893, -3.110000, -0.000000, 1, 1080, 1080, 1081, 1110
1.491925, 3.508476, 14.724234, 0.005803, 0.133016, 0.091477, 26.074249, 2.645425, -44.314529, -1.739399, 2.344768, 175.212204, 0.027912, 0.004368, 0.001366, 79948, 0.000000, 0.000000, 0.000000, 0.000000, 1.739399, -2.344768, -0.000000, 1, 1080, 1080, 1083, 1100
-4.426124, 0.949352, -11.460425, 0.096822, -0.068417, -0.077122, 26.074249, 2.645425, -44.314529, -1.610025, 3.701456, 175.237595, 0.027904, 0.004375, 0.001365, 79940, 0.000000, 0.000000, 0.000000, 0.000000, 1.610025, -3.701456, -0.000000, 1, 1080, 1080, 1090, 1107
-3.872783, -10.901102, 13.384253, -0.064752, -0.014813, 0.019090, 26.074249, 2.645425, -44.314529, -2.974211, 3.952430, 175.056152, 0.027906, 0.004374, 0.001365, 79940, 0.000000, 0.000000, 0.000000, 0.000000, 2.974211, -3.952430, 0.000000, 1, 1080, 1080, 1084, 1115
-1.374677, -7.759924, 8.575877, 0.035125, 0.133321, -0.125686, 26.074249, 2.645425, -44.314529, -4.356198, 3.970303, 174.864594, 0.027907, 0.004373, 0.001365, 79932, 0.000000, 0.000000, 0.000000, 0.000000, 4.356198, -3.970303, 0.000000, 1, 1081, 1080, 1080, 1122
-0.192622, -2.215754, -10.841879, -0.196088, 0.194866, -0.055589, 26.074249, 2.645425, -44.314529, -5.565683, 4.679302, 174.734253, 0.027907, 0.004374, 0.001364, 79944, 0.000000, 0.000000, 0.000000, 0.000000, 5.565683, -4.679302, 0.000000, 1, 1084, 1080, 1080, 1132
0.831506, -6.324231, 6.951747, 0.049938, 0.137445, -0.108276, 26.074249, 2.645425, -44.314529, -6.851033, 4.180002, 174.564194, 0.027907, 0.004374, 0.001364, 79936, 0.000000, 0.000000, 0.000000, 0.000000, 6.851033, -4.180002, 0.000000, 1, 1093, 1080, 1080, 1136
-9.737592, 0.755534, 14.229518, -0.031307, 0.276111, 0.118355, 26.074249, 2.645425, -44.314529, -6.254999, 5.437125, 174.721909, 0.027901, 0.004381, 0.001364, 79944, 0.000000, 0.000000, 0.000000, 0.000000, 6.254999, -5.437125, -0.000000, 1, 1084, 1080, 1080, 1139
-5.650053, 1.561317, 19.599611, 0.018326, 0.066432, 0.016646, 26.074249, 2.645425, -44.314529, -4.984343, 6.006813, 175.029572, 0.027901, 0.004381, 0.001364, 79932, 0.000000, 0.000000, 0.000000, 0.000000, 4.984343, -6.006813, -0.000000, 1, 1080, 1080, 1085, 1136
1.055235, -3.538386, -7.068997, 0.017868, 0.292452, -0.042761, 26.074249, 2.645425, -44.314529, -6.377546, 6.078792, 174.805893, 0.027903, 0.004380, 0.001364, 79940, 0.000000, 0.000000, 0.000000, 0.000000, 6.377546, -6.078792, 0.000000, 1, 1081, 1080, 1080, 1143
-6.355337, -11.628521, 19.599611, -0.080176, -0.033139, -0.096364, 26.074249, 2.645425, -44.314529, -7.695602, 6.466059, 174.619659, 0.027903, 0.004379, 0.001364, 79940, 0.000000, 0.000000, 0.000000, 0.000000, 7.695602, -6.466059, 0.000000, 1, 1086, 1080, 1080, 1152
-2.726621, -5.179265, 19.599611, 0.006414, -0.153327, 0.002749, 26.074249, 2.645425, -44.314529, -8.560845, 5.435497, 174.813446, 0.027899, 0.004383, 0.001363, 79932, 0.000000, 0.000000, 0.000000, 0.000000, 8.560845, -5.435497, -0.000000, 1, 1095, 1080, 1080, 1151
2.894717, 9.537791, -9.547362, 0.043524, 0.246942, 0.110567, 26.074249, 2.645425, -44.314529, -7.215283, 5.291698, 175.094238, 0.027900, 0.004382, 0.001363, 79944, 0.000000, 0.000000, 0.000000, 0.000000, 7.215283, -5.291698, -0.000000, 1, 1089, 1080, 1080, 1143
3.972684, 7.422535, -10.438090, -0.015882, 0.228311, 0.122326, 26.074249, 2.645425, -44.314529, -5.931296, 4.907682, 175.362183, 0.027900, 0.004382, 0.001363, 79940, 0.000000, 0.000000, 0.000000, 0.000000, 5.931296, -4.907682, -0.000000, 1, 1085, 1080, 1080, 1135
2.136791, 8.511868, -10.367502, -0.018173, 0.224646, 0.074984, 26.074249, 2.645425, -44.314529, -4.563103, 4.869668, 175.622589, 0.027902, 0.004381, 0.001363, 79940, 0.000000, 0.000000, 0.000000, 0.000000, 4.563103, -4.869668, -0.000000, 1, 1080, 1080, 1081, 1128
-3.672385, 10.287342, 6.245267, -0.125227, 0.077733, -0.042761, 26.074249, 2.645425, -44.314529, -3.223443, 5.203832, 175.855576, 0.027903, 0.004380, 0.001363, 79944, 0.000000, 0.000000, 0.000000, 0.000000, 3.223443, -5.203832, -0.000000, 1, 1080, 1080, 1090, 1123
0.126221, -2.937788, 7.472187, 0.000000, 0.002291, -0.092393, 26.074249, 2.645425, -44.314529, -4.398654, 4.466115, 175.691666, 0.027902, 0.004381, 0.001363, 79932, 0.000000, 0.000000, 0.000000, 0.000000, 4.398654, -4.466115, 0.000000, 1, 1080, 1080, 1080, 1125
-3.875774, -2.233700, 17.608784, 0.126602, -0.036957, 0.090713, 26.074249, 2.645425, -44.314529, -4.379034, 5.783678, 175.942032, 0.027894, 0.004388, 0.001363, 79948, 0.000000, 0.000000, 0.000000, 0.000000, 4.379034, -5.783678, -0.000000, 1, 1080, 1080, 1087, 1131
-2.396412, 8.355139, 0.544367, -0.031307, 0.289856, -0.101098, 26.074249, 2.645425, -44.314529, -3.039074, 6.172554, 176.185684, 0.027895, 0.004388, 0.001363, 79940, 0.000000, 0.000000, 0.000000, 0.000000, 3.039074, -6.172554, -0.000000, 1, 1080, 1080, 1096, 1127
-0.793819, -5.138587, 19.572691, 0.081245, -0.069028, 0.082314, 26.074249, 2.645425, -44.314529, -4.092422, 5.276795, 176.044922, 0.027893, 0.004391, 0.001363, 79940, 0.000000, 0.000000, 0.000000, 0.000000, 4.092422, -5.276795, 0.000000, 1, 1080, 1080, 1086, 1127
0.290130, 5.846264, 15.232710, -0.043982, 0.257785, -0.050855, 26.074249, 2.645425, -44.314529, -2.797401, 4.834720, 176.276840, 0.027893, 0.004390, 0.001362, 79932, 0.000000, 0.000000, 0.000000, 0.000000, 2.797401, -4.834720, -0.000000, 1, 1080, 1080, 1090, 1119
-3.768696, -12.638889, 19.599611, 0.040317, -0.158214, 0.020769, 26.074249, 2.645425, -44.314529, -4.178603, 4.878732, 176.075317, 0.027894, 0.004389, 0.001362, 79944, 0.000000, 0.000000, 0.000000, 0.000000, 4.178603, -4.878732, 0.000000, 1, 1080, 1080, 1083, 1126
6.353542, -0.164507, 2.593820, -0.019090, -0.012675, -0.065973, 26.074249, 2.645425, -44.314529, -4.129349, 3.521573, 176.091461, 0.027887, 0.004397, 0.001362, 79936, 0.000000, 0.000000, 0.000000, 0.000000, 4.129349, -3.521573, -0.000000, 1, 1083, 1080, 1080, 1119
2.440679, 0.082552, 7.715058, 0.007178, 0.166919, 0.138819, 26.074249, 2.645425, -44.314529, -3.747422, 2.228933, 176.181259, 0.027880, 0.004404, 0.001362, 79936, 0.000000, 0.000000, 0.000000, 0.000000, 3.747422, -2.228933, -0.000000, 1, 1087, 1080, 1080, 1110
4.902894, 1.246062, -2.178665, 0.200975, -0.060476, -0.116370, 26.074249, 2.645425, -44.314529, -3.393524, 0.904094, 176.222961, 0.027873, 0.004411, 0.001361, 79936, 0.000000, 0.000000, 0.000000, 0.000000, 3.393524, -0.904094, -0.000000, 1, 1092, 1080, 1080, 1101
-7.290931, -5.298906, -0.789033, -0.174249, 0.181885, -0.071471, 26.074249, 2.645425, -44.314529, -4.199767, 2.030674, 176.149216, 0.027868, 0.004416, 0.001361, 79944, 0.000000, 0.000000, 0.000000, 0.000000, 4.199767, -2.030674, 0.000000, 1, 1091, 1080, 1080, 1111
-8.734401, -0.213559, 1.858027, 0.031765, 0.107818, -0.050549, 26.074249, 2.645425, -44.314529, -4.165875, 3.403392, 176.165085, 0.027861, 0.004423, 0.001360, 79936, 0.000000, 0.000000, 0.000000, 0.000000, 4.165875, -3.403392, -0.000000, 1, 1083, 1080, 1080, 1118
4.326822, -7.443473, -4.095316, 0.007330, 0.229533, -0.081703, 26.074249, 2.645425, -44.314529, -5.400987, 2.797658, 176.013321, 0.027860, 0.004424, 0.001360, 79936, 0.000000, 0.000000, 0.000000, 0.000000, 5.400987, -2.797658, 0.000000, 1, 1093, 1080, 1080, 1121
8.924630, -0.432503, 8.132606, -0.029627, 0.152564, 0.013744, 26.074249, 2.645425, -44.314529, -5.276187, 1.452583, 176.052231, 0.027853, 0.004431, 0.001360, 79940, 0.000000, 0.000000, 0.000000, 0.000000, 5.276187, -1.452583, -0.000000, 1, 1099, 1080, 1080, 1114
7.481160, 3.025126, 15.771692, 0.029169, 0.103236, 0.174707, 26.074249, 2.645425, -44.314529, -4.571689, 0.292907, 176.164902, 0.027847, 0.004437, 0.001360, 79940, 0.000000, 0.000000, 0.000000, 0.000000, 4.571689, -0.292907, -0.000000, 1, 1101, 1080, 1080, 1104
0.812962, -3.923631, -7.231709, 0.060476, -0.039248, -0.054672, 26.074249, 2.645425, -44.314529, -5.938187, 0.206739, 176.087265, 0.027849, 0.004436, 0.001359, 79944, 0.000000, 0.000000, 0.000000, 0.000000, 5.938187, -0.206739, 0.000000, 1, 1109, 1080, 1080, 1111
-8.891729, -6.206384, 19.019352, 0.068875, -0.053603, 0.030849, 26.074249, 2.645425, -44.314529, -6.445195, 1.463297, 176.115417, 0.027842, 0.004442, 0.001359, 79944, 0.000000, 0.000000, 0.000000, 0.000000, 6.445195, -1.463297, -0.000000, 1, 1105, 1080, 1080, 1120
-7.143174, -3.069393, 10.030114, -0.155312, -0.028100, -0.000305, 26.074249, 2.645425, -44.314529, -6.719582, 2.796059, 176.140213, 0.027835, 0.004449, 0.001358, 79936, 0.000000, 0.000000, 0.000000, 0.000000, 6.719582, -2.796059, -0.000000, 1, 1100, 1080, 1080, 1128
-4.378267, -7.778468, -2.223530, -0.060628, 0.045509, -0.018021, 26.074249, 2.645425, -44.314529, -7.902202, 3.482503, 176.011536, 0.027834, 0.004450, 0.001358, 79940, 0.000000, 0.000000, 0.000000, 0.000000, 7.902202, -3.482503, 0.000000, 1, 1102, 1080, 1080, 1138
-11.608779, 11.311470, 19.599611, 0.024893, 0.293063, 0.047800, 26.074249, 2.645425, -44.314529, -6.699802, 4.190251, 176.225143, 0.027833, 0.004451, 0.001358, 79936, 0.000000, 0.000000, 0.000000, 0.000000, 6.699802, -4.190251, -0.000000, 1, 1092, 1080, 1080, 1135
-10.810772, -2.172085, 2.220540, 0.105222, 0.027642, 0.148288, 26.074249, 2.645425, -44.314529, -6.870214, 5.537578, 176.233475, 0.027826, 0.004459, 0.001358, 79944, 0.000000, 0.000000, 0.000000, 0.000000, 6.870214, -5.537578, -0.000000, 1, 1086, 1080, 1080, 1143
