acc.x, acc.y, acc.z, gyro.x, gyro.y, gyro.z, magn.x, magn.y, magn.z, roll, pitch, yaw, roll_var, pitch_var, yaw_var, kf_dt, throttle, command_roll, command_pitch, command_yaw, pid_roll, pid_pitch, pid_yaw, motors_armed, m1_speed, m2_speed, m3_speed, m4_speed
-0.705284, -0.401396, 0.000000, 0.014966, 0.069486, 0.001069, 0.000000, -0.881622, -0.266034, 0.000032, -0.824509, -0.000000, 0.129120, 0.000032, -0.001941, 4252585520795746304, 44.048523, 0.016035, 0.059101, 0.002902, -0.739980, -0.373280, 9.823136, 107, 59027, 25920, 31168, 33088
-0.714856, -0.385244, 9.817153, 0.016799, 0.069791, 0.001222, 7.687811, 3.478515, -45.746857, 2.157635, 0.781087, 152.027161, 0.077629, 0.017536, 0.001357, 79940, 0.000000, 0.000000, 0.000000, 0.000000, -2.157635, -0.781087, -0.000000, 0, 1080, 1087, 1095, 1080
-0.713659, -0.377468, 9.833903, 0.019242, 0.071319, -0.003512, 7.687811, 3.946214, -45.644550, 0.930734, 0.172554, 151.892548, 0.077605, 0.017531, 0.001356, 79936, 0.000000, 0.000000, 0.000000, 0.000000, -0.930734, -0.172554, 0.000000, 0, 1080, 1083, 1085, 1080
-0.710070, -0.380459, 9.842876, 0.019395, 0.065821, -0.001680, 8.126279, 3.916983, -45.819935, 2.159525, 0.787164, 152.062500, 0.077580, 0.017525, 0.001356, 79948, 0.000000, 0.000000, 0.000000, 0.000000, -2.159525, -0.787164, -0.000000, 0, 1080, 1087, 1095, 1080
-0.726820, -0.380459, 9.839885, 0.016035, 0.062461, 0.006872, 7.468577, 3.873137, -45.878399, 0.905117, 0.235842, 151.925827, 0.077556, 0.017519, 0.001355, 79936, 0.000000, 0.000000, 0.000000, 0.000000, -0.905117, -0.235842, 0.000000, 0, 1080, 1083, 1085, 1080
-0.722034, -0.389432, 9.878170, 0.015119, 0.068875, 0.000611, 8.023970, 4.121602, -45.732243, 2.119123, 0.870540, 152.081467, 0.077531, 0.017514, 0.001355, 79948, 0.000000, 0.000000, 0.000000, 0.000000, -2.119123, -0.870540, -0.000000, 0, 1080, 1086, 1095, 1080
-0.734596, -0.384646, 9.849456, 0.017868, 0.066584, 0.001527, 7.527039, 3.668518, -45.746857, 0.874821, 0.296738, 151.954300, 0.077507, 0.017509, 0.001354, 79940, 0.000000, 0.000000, 0.000000, 0.000000, -0.874821, -0.296738, 0.000000, 0, 1080, 1082, 1085, 1080
-0.728615, -0.389432, 9.854840, 0.019395, 0.066279, -0.001527, 7.717041, 4.194680, -45.995323, 2.102433, 0.895038, 152.086075, 0.077482, 0.017503, 0.001354, 79940, 0.000000, 0.000000, 0.000000, 0.000000, -2.102433, -0.895038, -0.000000, 0, 1080, 1086, 1095, 1080
-0.722034, -0.376870, 9.839287, 0.015424, 0.063835, 0.001374, 7.161649, 4.209296, -45.629932, 0.939616, 0.170795, 151.939957, 0.077456, 0.017499, 0.001353, 79940, 0.000000, 0.000000, 0.000000, 0.000000, -0.939616, -0.170795, 0.000000, 0, 1080, 1083, 1085, 1080
-0.722034, -0.401994, 9.824929, 0.013134, 0.065821, 0.000764, 7.000877, 4.077755, -46.506870, 1.791189, 1.205016, 152.010529, 0.077425, 0.017500, 0.001353, 79944, 0.000000, 0.000000, 0.000000, 0.000000, -1.791189, -1.205016, -0.000000, 0, 1080, 1082, 1095, 1080
-0.718445, -0.393021, 9.829716, 0.015730, 0.062461, 0.003818, 7.220111, 3.551593, -46.009941, 0.889011, 0.173846, 151.916702, 0.077395, 0.017500, 0.001352, 79940, 0.000000, 0.000000, 0.000000, 0.000000, -0.889011, -0.173846, 0.000000, 0, 1080, 1083, 1085, 1080
-0.730409, -0.393619, 9.828520, 0.016035, 0.063377, -0.002749, 7.863198, 3.478515, -45.717628, 2.056001, 0.901213, 152.088013, 0.077369, 0.017496, 0.001352, 79932, 0.000000, 0.000000, 0.000000, 0.000000, -2.056001, -0.901213, -0.000000, 0, 1080, 1085, 1095, 1080
-0.725623, -0.378066, 9.850055, 0.018784, 0.066279, 0.005192, 7.263958, 3.610055, -45.849167, 0.877974, 0.202061, 151.965744, 0.077344, 0.017492, 0.001351, 79936, 0.000000, 0.000000, 0.000000, 0.000000, -0.877974, -0.202061, 0.000000, 0, 1080, 1083, 1085, 1080
-0.738784, -0.361316, 9.838689, 0.016493, 0.059865, -0.001222, 7.512424, 3.697749, -45.995323, 2.075429, 0.880696, 152.106735, 0.077318, 0.017488, 0.001351, 79964, 0.000000, 0.000000, 0.000000, 0.000000, -2.075429, -0.880696, -0.000000, 0, 1080, 1086, 1095, 1080
-0.719641, -0.389432, 9.818949, 0.016035, 0.061239, 0.002902, 7.936276, 3.507746, -46.214558, 0.863129, 0.242602, 152.004730, 0.077294, 0.017483, 0.001350, 79916, 0.000000, 0.000000, 0.000000, 0.000000, -0.863129, -0.242602, 0.000000, 0, 1080, 1083, 1085, 1080
-0.741177, -0.406780, 9.859028, 0.017715, 0.069486, -0.000611, 7.322420, 3.843905, -46.243790, 1.924424, 1.106533, 152.135254, 0.077266, 0.017480, 0.001350, 79944, 0.000000, 0.000000, 0.000000, 0.000000, -1.924424, -1.106533, -0.000000, 0, 1080, 1084, 1095, 1080
-0.705883, -0.396610, 9.822537, 0.018021, 0.072082, -0.000458, 7.351652, 3.916983, -45.352234, 0.901178, 0.195865, 152.016678, 0.077238, 0.017479, 0.001349, 79940, 0.000000, 0.000000, 0.000000, 0.000000, -0.901178, -0.195865, 0.000000, 0, 1080, 1083, 1085, 1080
-0.733400, -0.391227, 9.845268, 0.013897, 0.063072, 0.005651, 6.957030, 3.536978, -45.586086, 2.013357, 0.999759, 152.150223, 0.077211, 0.017476, 0.001349, 79940, 0.000000, 0.000000, 0.000000, 0.000000, -2.013357, -0.999759, -0.000000, 0, 1080, 1085, 1095, 1080
-0.738186, -0.388834, 9.845867, 0.017410, 0.070555, -0.000916, 7.073955, 4.063139, -45.337620, 0.857855, 0.264255, 152.007980, 0.077186, 0.017472, 0.001348, 79940, 0.000000, 0.000000, 0.000000, 0.000000, -0.857855, -0.264255, 0.000000, 0, 1080, 1083, 1085, 1080
-0.727418, -0.376271, 9.852448, 0.016799, 0.067653, -0.003207, 6.620871, 3.493131, -46.229172, 2.111000, 0.829638, 152.134888, 0.077162, 0.017467, 0.001348, 79940, 0.000000, 0.000000, 0.000000, 0.000000, -2.111000, -0.829638, -0.000000, 0, 1080, 1086, 1095, 1080
-0.719043, -0.376271, 9.828520, 0.015272, 0.061545, 0.001680, 7.424729, 3.770827, -46.404560, 0.901075, 0.185930, 152.006042, 0.077137, 0.017462, 0.001347, 79944, 0.000000, 0.000000, 0.000000, 0.000000, -0.901075, -0.185930, 0.000000, 0, 1080, 1083, 1085, 1080
-0.719043, -0.391227, 9.807582, 0.014050, 0.073151, -0.001527, 7.147033, 3.829290, -46.477638, 2.032213, 0.956586, 152.132111, 0.077111, 0.017458, 0.001347, 79944, 0.000000, 0.000000, 0.000000, 0.000000, -2.032213, -0.956586, -0.000000, 0, 1080, 1085, 1095, 1080
-0.733998, -0.388235, 9.820743, 0.017410, 0.073915, -0.003818, 7.161649, 3.770827, -45.673779, 0.846086, 0.271093, 151.999802, 0.077086, 0.017454, 0.001346, 79940, 0.000000, 0.000000, 0.000000, 0.000000, -0.846086, -0.271093, 0.000000, 0, 1080, 1082, 1085, 1080
-0.723829, -0.387039, 9.822537, 0.017104, 0.062919, 0.003360, 7.278574, 3.376206, -46.433792, 2.105827, 0.825793, 152.157867, 0.077062, 0.017448, 0.001346, 79940, 0.000000, 0.000000, 0.000000, 0.000000, -2.105827, -0.825793, -0.000000, 0, 1080, 1086, 1094, 1080
-0.707677, -0.380459, 9.855439, 0.016341, 0.065210, 0.001374, 7.293190, 3.785443, -46.009941, 0.927857, 0.125572, 152.030655, 0.077037, 0.017444, 0.001345, 79940, 0.000000, 0.000000, 0.000000, 0.000000, -0.927857, -0.125572, 0.000000, 0, 1080, 1084, 1085, 1080
-0.724427, -0.366102, 9.850055, 0.014661, 0.072082, -0.002443, 7.307805, 3.668518, -45.863785, 2.096982, 0.849559, 152.166550, 0.077012, 0.017440, 0.001345, 79940, 0.000000, 0.000000, 0.000000, 0.000000, -2.096982, -0.849559, -0.000000, 0, 1080, 1086, 1095, 1080
-0.730409, -0.377468, 9.854242, 0.014355, 0.072540, -0.004276, 7.000877, 3.449284, -46.024555, 0.871346, 0.236692, 152.042374, 0.076988, 0.017435, 0.001344, 79932, 0.000000, 0.000000, 0.000000, 0.000000, -0.871346, -0.236692, 0.000000, 0, 1080, 1083, 1085, 1080
-0.716650, -0.378066, 9.821341, 0.014661, 0.071013, -0.000916, 7.132418, 3.770827, -45.644550, 2.126937, 0.792148, 152.176849, 0.076964, 0.017429, 0.001344, 79944, 0.000000, 0.000000, 0.000000, 0.000000, -2.126937, -0.792148, -0.000000, 0, 1080, 1086, 1094, 1080
-0.722034, -0.386441, 9.834501, 0.013439, 0.067959, 0.001833, 7.073955, 3.858521, -45.235313, 0.892319, 0.197435, 152.037918, 0.076940, 0.017424, 0.001343, 79936, 0.000000, 0.000000, 0.000000, 0.000000, -0.892319, -0.197435, 0.000000, 0, 1080, 1083, 1085, 1080
-0.733998, -0.388235, 9.847661, 0.014355, 0.069639, 0.001222, 6.927799, 3.463899, -45.688396, 2.029802, 0.968324, 152.173553, 0.076914, 0.017420, 0.001343, 79944, 0.000000, 0.000000, 0.000000, 0.000000, -2.029802, -0.968324, -0.000000, 0, 1080, 1085, 1095, 1080
-0.729213, -0.393619, 9.812368, 0.010537, 0.073457, -0.003512, 7.190880, 3.624671, -44.738380, 0.845683, 0.278201, 152.047577, 0.076889, 0.017416, 0.001342, 79936, 0.000000, 0.000000, 0.000000, 0.000000, -0.845683, -0.278201, 0.000000, 0, 1080, 1082, 1085, 1080
-0.731606, -0.372682, 9.838091, 0.015424, 0.062919, 0.003360, 7.643963, 3.770827, -44.533764, 2.099147, 0.844160, 152.202042, 0.076866, 0.017410, 0.001342, 79944, 0.000000, 0.000000, 0.000000, 0.000000, -2.099147, -0.844160, -0.000000, 0, 1080, 1086, 1095, 1080
-0.704686, -0.393021, 9.842876, 0.016493, 0.065363, -0.002443, 7.395498, 4.063139, -45.323006, 0.922259, 0.142532, 152.065231, 0.076841, 0.017406, 0.001341, 79936, 0.000000, 0.000000, 0.000000, 0.000000, -0.922259, -0.142532, 0.000000, 0, 1080, 1083, 1085, 1080
-0.732204, -0.371486, 9.839287, 0.017104, 0.062156, 0.004581, 7.629348, 3.916983, -45.527622, 2.042859, 0.935908, 152.199188, 0.076815, 0.017403, 0.001341, 79948, 0.000000, 0.000000, 0.000000, 0.000000, -2.042859, -0.935908, -0.000000, 0, 1080, 1085, 1095, 1080
-0.730409, -0.378066, 9.824332, 0.015424, 0.061087, 0.001985, 7.453961, 3.697749, -45.264542, 0.863925, 0.238001, 152.073547, 0.076790, 0.017399, 0.001340, 79936, 0.000000, 0.000000, 0.000000, 0.000000, -0.863925, -0.238001, 0.000000, 0, 1080, 1083, 1085, 1080
-0.742971, -0.379262, 9.842278, 0.018021, 0.066126, -0.000305, 6.810874, 3.887752, -45.907627, 1.974834, 1.036125, 152.172073, 0.076764, 0.017396, 0.001340, 79948, 0.000000, 0.000000, 0.000000, 0.000000, -1.974834, -1.036125, -0.000000, 0, 1080, 1084, 1095, 1080
-0.710070, -0.370289, 9.818949, 0.016646, 0.065821, -0.002443, 7.717041, 4.136218, -45.206078, 0.945692, 0.132988, 152.043396, 0.076736, 0.017394, 0.001339, 79940, 0.000000, 0.000000, 0.000000, 0.000000, -0.945692, -0.132988, 0.000000, 0, 1080, 1084, 1085, 1080
-0.706481, -0.367896, 9.854242, 0.019395, 0.074678, -0.003207, 7.220111, 3.317743, -45.586086, 2.196140, 0.709738, 152.199081, 0.076713, 0.017389, 0.001339, 79940, 0.000000, 0.000000, 0.000000, 0.000000, -2.196140, -0.709738, -0.000000, 0, 1080, 1087, 1094, 1080
-0.738186, -0.384646, 9.808779, 0.017562, 0.067348, 0.001833, 7.234727, 3.756212, -46.185326, 0.882829, 0.318214, 152.059464, 0.076690, 0.017382, 0.001338, 79940, 0.000000, 0.000000, 0.000000, 0.000000, -0.882829, -0.318214, 0.000000, 0, 1080, 1082, 1086, 1080
-0.725025, -0.399003, 9.846465, 0.018631, 0.066432, -0.000305, 7.658579, 3.420053, -46.185326, 2.147105, 0.859752, 152.237289, 0.076667, 0.017376, 0.001338, 79940, 0.000000, 0.000000, 0.000000, 0.000000, -2.147105, -0.859752, -0.000000, 0, 1080, 1086, 1095, 1080
-0.726820, -0.393619, 9.848859, 0.017104, 0.069333, 0.000916, 7.439345, 3.741596, -45.790707, 0.906616, 0.276720, 152.106766, 0.076644, 0.017371, 0.001338, 79940, 0.000000, 0.000000, 0.000000, 0.000000, -0.906616, -0.276720, 0.000000, 0, 1080, 1083, 1086, 1080
-0.718445, -0.377468, 9.874581, 0.015119, 0.070250, 0.037568, 6.957030, 3.390821, -46.273022, 2.196419, 0.755828, 152.257263, 0.076621, 0.017364, 0.001337, 79936, 0.000000, 0.000000, 0.000000, 0.000000, -2.196419, -0.755828, -0.000000, 0, 1080, 1087, 1095, 1080
-0.718445, -0.376271, 9.842876, 0.016493, 0.068570, -0.002291, 6.898568, 3.756212, -45.659164, 0.958434, 0.167853, 152.119659, 0.076598, 0.017359, 0.001337, 79936, 0.000000, 0.000000, 0.000000, 0.000000, -0.958434, -0.167853, 0.000000, 0, 1080, 1084, 1085, 1080
-0.710668, -0.396610, 9.845268, 0.016035, 0.072235, -0.001833, 7.497808, 3.741596, -45.907627, 2.111877, 0.906650, 152.275177, 0.076573, 0.017355, 0.001336, 79944, 0.000000, 0.000000, 0.000000, 0.000000, -2.111877, -0.906650, -0.000000, 0, 1080, 1086, 1095, 1080
-0.719641, -0.389432, 9.844072, 0.018326, 0.062614, -0.002749, 7.307805, 3.595440, -46.389942, 0.917289, 0.234090, 152.153122, 0.076548, 0.017351, 0.001336, 79936, 0.000000, 0.000000, 0.000000, 0.000000, -0.917289, -0.234090, 0.000000, 0, 1080, 1083, 1085, 1080
-0.728016, -0.391227, 9.836893, 0.016952, 0.067959, -0.001069, 7.570886, 3.346974, -46.433792, 2.123838, 0.895301, 152.320740, 0.076524, 0.017346, 0.001335, 79948, 0.000000, 0.000000, 0.000000, 0.000000, -2.123838, -0.895301, -0.000000, 0, 1080, 1086, 1095, 1080
-0.719043, -0.394218, 9.847064, 0.015577, 0.063988, 0.000916, 7.527039, 4.048524, -45.381470, 0.926661, 0.228456, 152.182068, 0.076500, 0.017342, 0.001335, 79932, 0.000000, 0.000000, 0.000000, 0.000000, -0.926661, -0.228456, 0.000000, 0, 1080, 1083, 1085, 1080
-0.714856, -0.398405, 9.844671, 0.014661, 0.067959, -0.000305, 7.176264, 3.726980, -45.746857, 2.113461, 0.906817, 152.325882, 0.076475, 0.017337, 0.001334, 79944, 0.000000, 0.000000, 0.000000, 0.000000, -2.113461, -0.906817, -0.000000, 0, 1080, 1086, 1095, 1080
-0.736391, -0.382253, 9.849456, 0.016035, 0.067042, -0.002138, 7.117802, 3.346974, -46.258404, 0.881893, 0.304649, 152.206100, 0.076452, 0.017332, 0.001334, 79940, 0.000000, 0.000000, 0.000000, 0.000000, -0.881893, -0.304649, 0.000000, 0, 1080, 1082, 1086, 1080
-0.720240, -0.381057, 9.867402, 0.020922, 0.066126, -0.000611, 7.673195, 3.946214, -46.287636, 2.177844, 0.757573, 152.354630, 0.076429, 0.017326, 0.001333, 79940, 0.000000, 0.000000, 0.000000, 0.000000, -2.177844, -0.757573, -0.000000, 0, 1080, 1087, 1095, 1080
-0.715454, -0.369093, 9.834501, 0.014508, 0.065973, 0.001680, 7.366267, 3.449284, -46.316864, 0.930466, 0.189305, 152.235596, 0.076406, 0.017320, 0.001333, 79944, 0.000000, 0.000000, 0.000000, 0.000000, -0.930466, -0.189305, 0.000000, 0, 1080, 1083, 1085, 1080
-0.729811, -0.384646, 9.834501, 0.013897, 0.073762, -0.001833, 6.957030, 3.975446, -45.249928, 1.957782, 1.077848, 152.323792, 0.076379, 0.017319, 0.001332, 79944, 0.000000, 0.000000, 0.000000, 0.000000, -1.957782, -1.077848, -0.000000, 0, 1080, 1084, 1095, 1080
-0.719641, -0.367298, 9.853046, 0.015424, 0.065973, 0.003512, 7.307805, 3.610055, -45.586086, 0.964765, 0.134391, 152.215347, 0.076351, 0.017318, 0.001332, 79936, 0.000000, 0.000000, 0.000000, 0.000000, -0.964765, -0.134391, 0.000000, 0, 1080, 1084, 1085, 1080
-0.730409, -0.419342, 9.839287, 0.013592, 0.066584, 0.001833, 7.380883, 3.873137, -45.761471, 1.707779, 1.271272, 152.327560, 0.076320, 0.017320, 0.001331, 79948, 0.000000, 0.000000, 0.000000, 0.000000, -1.707779, -1.271272, -0.000000, 0, 1080, 1082, 1095, 1080
-0.713061, -0.384646, 9.844671, 0.016188, 0.072235, -0.004734, 6.971645, 2.762350, -46.009941, 1.188754, 0.005061, 152.298843, 0.076286, 0.017325, 0.001331, 79936, 0.000000, 0.000000, 0.000000, 0.000000, -1.188754, -0.005061, 0.000000, 0, 1080, 1086, 1086, 1080
-0.713061, -0.372682, 9.857831, 0.020464, 0.067959, -0.003360, 7.030108, 3.916983, -45.790707, 1.724040, 1.239767, 152.345474, 0.076253, 0.017330, 0.001330, 79940, 0.000000, 0.000000, 0.000000, 0.000000, -1.724040, -1.239767, -0.000000, 0, 1080, 1082, 1095, 1080
-0.721436, -0.364905, 9.859627, 0.014203, 0.063377, 0.002291, 7.293190, 4.121602, -46.068401, 0.929493, 0.124966, 152.235245, 0.076222, 0.017332, 0.001330, 79936, 0.000000, 0.000000, 0.000000, 0.000000, -0.929493, -0.124966, 0.000000, 0, 1080, 1084, 1085, 1080
-0.738186, -0.384048, 9.830912, 0.022297, 0.066279, 0.002596, 7.015493, 4.004677, -46.346100, 1.831687, 1.147110, 152.316681, 0.076193, 0.017332, 0.001329, 79944, 0.000000, 0.000000, 0.000000, 0.000000, -1.831687, -1.147110, -0.000000, 0, 1080, 1083, 1095, 1080
-0.720838, -0.400798, 9.872787, 0.016493, 0.066737, 0.003054, 7.351652, 3.916983, -46.126862, 0.833153, 0.209359, 152.201096, 0.076165, 0.017331, 0.001328, 79936, 0.000000, 0.000000, 0.000000, 0.000000, -0.833153, -0.209359, 0.000000, 0, 1080, 1083, 1085, 1080
-0.711267, -0.404387, 9.814162, 0.011301, 0.071929, -0.003665, 7.527039, 3.683133, -46.199944, 2.059703, 0.827166, 152.362427, 0.076142, 0.017326, 0.001328, 79940, 0.000000, 0.000000, 0.000000, 0.000000, -2.059703, -0.827166, -0.000000, 0, 1080, 1086, 1094, 1080
-0.713659, -0.400798, 9.838689, 0.012523, 0.070708, -0.001985, 7.468577, 3.288512, -46.185326, 0.828547, 0.224245, 152.260010, 0.076119, 0.017321, 0.001327, 79940, 0.000000, 0.000000, 0.000000, 0.000000, -0.828547, -0.224245, 0.000000, 0, 1080, 1083, 1085, 1080
-0.739382, -0.380459, 9.813564, 0.017104, 0.067653, 0.000305, 7.483192, 3.317743, -46.316864, 2.038108, 0.882933, 152.416382, 0.076095, 0.017316, 0.001327, 79940, 0.000000, 0.000000, 0.000000, 0.000000, -2.038108, -0.882933, -0.000000, 0, 1080, 1085, 1094, 1080
-0.730409, -0.382253, 9.828520, 0.017257, 0.071319, -0.001680, 7.848582, 3.390821, -45.805321, 0.817456, 0.263107, 152.318054, 0.076072, 0.017311, 0.001327, 79940, 0.000000, 0.000000, 0.000000, 0.000000, -0.817456, -0.263107, 0.000000, 0, 1080, 1082, 1085, 1080
-0.711865, -0.394218, 9.807582, 0.016799, 0.065363, 0.002291, 7.278574, 3.595440, -46.375328, 2.099047, 0.761203, 152.472107, 0.076049, 0.017305, 0.001326, 79940, 0.000000, 0.000000, 0.000000, 0.000000, -2.099047, -0.761203, -0.000000, 0, 1080, 1086, 1094, 1080
-0.727418, -0.367896, 9.823733, 0.012523, 0.064752, 0.000305, 7.614733, 3.566209, -46.185326, 0.833678, 0.237264, 152.350372, 0.076027, 0.017299, 0.001326, 79940, 0.000000, 0.000000, 0.000000, 0.000000, -0.833678, -0.237264, 0.000000, 0, 1080, 1083, 1085, 1080
-0.728615, -0.404387, 9.834501, 0.015272, 0.061697, 0.001222, 7.103186, 3.624671, -45.542240, 1.996978, 0.964130, 152.492172, 0.076002, 0.017296, 0.001325, 79948, 0.000000, 0.000000, 0.000000, 0.000000, -1.996978, -0.964130, -0.000000, 0, 1080, 1085, 1095, 1080
-0.719641, -0.392423, 9.842876, 0.015730, 0.066279, 0.002291, 7.190880, 3.478515, -45.761471, 0.856554, 0.203960, 152.378464, 0.075977, 0.017292, 0.001325, 79940, 0.000000, 0.000000, 0.000000, 0.000000, -0.856554, -0.203960, 0.000000, 0, 1080, 1083, 1085, 1080
-0.719043, -0.363111, 9.841081, 0.016188, 0.058490, 0.004581, 7.512424, 3.463899, -45.206078, 2.128848, 0.730489, 152.535965, 0.075955, 0.017287, 0.001324, 79940, 0.000000, 0.000000, 0.000000, 0.000000, -2.128848, -0.730489, -0.000000, 0, 1080, 1087, 1094, 1080
-0.714856, -0.387039, 9.812965, 0.012523, 0.068570, 0.001680, 6.840106, 3.390821, -45.673779, 0.864373, 0.200469, 152.411835, 0.075933, 0.017281, 0.001324, 79936, 0.000000, 0.000000, 0.000000, 0.000000, -0.864373, -0.200469, 0.000000, 0, 1080, 1083, 1085, 1080
-0.720838, -0.404387, 9.837492, 0.018631, 0.064141, 0.001374, 6.825490, 3.259281, -45.469162, 2.048549, 0.898552, 152.561676, 0.075909, 0.017277, 0.001323, 79944, 0.000000, 0.000000, 0.000000, 0.000000, -2.048549, -0.898552, -0.000000, 0, 1080, 1085, 1095, 1080
-0.715454, -0.381655, 9.845867, 0.020617, 0.070555, 0.002291, 6.767027, 3.639287, -45.220695, 0.899631, 0.152328, 152.434174, 0.075884, 0.017273, 0.001323, 79940, 0.000000, 0.000000, 0.000000, 0.000000, -0.899631, -0.152328, 0.000000, 0, 1080, 1083, 1085, 1080
-0.712463, -0.388834, 9.855439, 0.016341, 0.064446, 0.000305, 7.190880, 3.770827, -45.790707, 2.081448, 0.846510, 152.568146, 0.075860, 0.017269, 0.001322, 79940, 0.000000, 0.000000, 0.000000, 0.000000, -2.081448, -0.846510, -0.000000, 0, 1080, 1086, 1094, 1080
-0.717847, -0.381655, 9.857233, 0.015577, 0.072388, -0.004734, 7.556270, 4.180064, -46.068401, 0.898446, 0.156934, 152.424622, 0.075836, 0.017265, 0.001322, 79932, 0.000000, 0.000000, 0.000000, 0.000000, -0.898446, -0.156934, 0.000000, 0, 1080, 1083, 1085, 1080
-0.726222, -0.363709, 9.811171, 0.017715, 0.074678, -0.002596, 7.190880, 4.106986, -45.659164, 2.042328, 0.907465, 152.519699, 0.075811, 0.017261, 0.001321, 79944, 0.000000, 0.000000, 0.000000, 0.000000, -2.042328, -0.907465, -0.000000, 0, 1080, 1085, 1095, 1080
-0.733400, -0.393619, 9.834501, 0.014661, 0.065821, -0.000153, 6.825490, 3.960830, -45.264542, 0.847094, 0.237014, 152.377182, 0.075788, 0.017257, 0.001321, 79940, 0.000000, 0.000000, 0.000000, 0.000000, -0.847094, -0.237014, 0.000000, 0, 1080, 1083, 1085, 1080
-0.717249, -0.388834, 9.839885, 0.019395, 0.063835, 0.004734, 7.322420, 4.326220, -46.024555, 2.081480, 0.785731, 152.460327, 0.075765, 0.017251, 0.001320, 79940, 0.000000, 0.000000, 0.000000, 0.000000, -2.081480, -0.785731, -0.000000, 0, 1080, 1086, 1094, 1080
-0.716650, -0.379262, 9.853046, 0.014355, 0.064141, -0.000458, 7.132418, 3.814674, -45.366852, 0.873369, 0.139387, 152.324890, 0.075741, 0.017247, 0.001320, 79940, 0.000000, 0.000000, 0.000000, 0.000000, -0.873369, -0.139387, 0.000000, 0, 1080, 1083, 1085, 1080
-0.696311, -0.399003, 9.840484, 0.021533, 0.068570, 0.003054, 7.044724, 3.829290, -45.206078, 2.100170, 0.742190, 152.458237, 0.075718, 0.017242, 0.001319, 79944, 0.000000, 0.000000, 0.000000, 0.000000, -2.100170, -0.742190, -0.000000, 0, 1080, 1086, 1094, 1080
-0.723829, -0.365504, 9.880563, 0.018631, 0.070250, -0.001069, 6.635486, 3.756212, -45.483776, 0.889227, 0.102598, 152.318359, 0.075695, 0.017237, 0.001319, 79936, 0.000000, 0.000000, 0.000000, 0.000000, -0.889227, -0.102598, 0.000000, 0, 1080, 1084, 1085, 1080
-0.721436, -0.390030, 9.838689, 0.014508, 0.068111, -0.003818, 6.957030, 3.785443, -45.001461, 1.947339, 0.971085, 152.431732, 0.075669, 0.017235, 0.001318, 79944, 0.000000, 0.000000, 0.000000, 0.000000, -1.947339, -0.971085, -0.000000, 0, 1080, 1084, 1094, 1080
-0.735793, -0.382852, 9.851252, 0.016188, 0.063225, 0.004734, 7.147033, 3.536978, -45.673779, 0.801591, 0.220165, 152.312561, 0.075645, 0.017232, 0.001318, 79944, 0.000000, 0.000000, 0.000000, 0.000000, -0.801591, -0.220165, 0.000000, 0, 1080, 1082, 1085, 1080
-0.719641, -0.394218, 9.826126, 0.015730, 0.064294, 0.003360, 7.132418, 4.048524, -44.256065, 2.010433, 0.853368, 152.425446, 0.075621, 0.017227, 0.001317, 79940, 0.000000, 0.000000, 0.000000, 0.000000, -2.010433, -0.853368, -0.000000, 0, 1080, 1085, 1094, 1080
-0.715454, -0.400200, 9.844671, 0.016646, 0.065210, -0.000764, 6.971645, 4.063139, -46.360714, 0.833359, 0.151829, 152.287613, 0.075597, 0.017223, 0.001317, 79940, 0.000000, 0.000000, 0.000000, 0.000000, -0.833359, -0.151829, 0.000000, 0, 1080, 1083, 1085, 1080
-0.729213, -0.366102, 9.838689, 0.016799, 0.061392, 0.000611, 6.854721, 4.238527, -45.863785, 1.987305, 0.876951, 152.354492, 0.075573, 0.017219, 0.001316, 79944, 0.000000, 0.000000, 0.000000, 0.000000, -1.987305, -0.876951, -0.000000, 0, 1080, 1085, 1094, 1080
-0.726820, -0.385244, 9.826724, 0.017868, 0.069486, -0.001069, 7.220111, 4.370067, -46.009941, 0.821365, 0.159917, 152.203445, 0.075549, 0.017215, 0.001316, 79936, 0.000000, 0.000000, 0.000000, 0.000000, -0.821365, -0.159917, 0.000000, 0, 1080, 1083, 1085, 1080
-0.720838, -0.393619, 9.873982, 0.015424, 0.068417, -0.001527, 6.635486, 3.931599, -45.352234, 1.966260, 0.898896, 152.294586, 0.075525, 0.017212, 0.001315, 79940, 0.000000, 0.000000, 0.000000, 0.000000, -1.966260, -0.898896, -0.000000, 0, 1080, 1085, 1094, 1080
-0.724427, -0.388834, 9.835099, 0.017257, 0.068264, -0.002443, 7.161649, 3.463899, -45.352234, 0.791967, 0.193882, 152.179184, 0.075501, 0.017208, 0.001315, 79936, 0.000000, 0.000000, 0.000000, 0.000000, -0.791967, -0.193882, 0.000000, 0, 1080, 1083, 1085, 1080
-0.738186, -0.382852, 9.831510, 0.015577, 0.068722, 0.000611, 6.796259, 4.282373, -45.118385, 1.869090, 1.013829, 152.230118, 0.075475, 0.017205, 0.001314, 79940, 0.000000, 0.000000, 0.000000, 0.000000, -1.869090, -1.013829, -0.000000, 0, 1080, 1084, 1094, 1080
-0.720240, -0.378066, 9.847661, 0.016952, 0.063988, 0.003207, 7.088570, 3.902368, -45.454548, 0.838413, 0.112292, 152.105988, 0.075449, 0.017204, 0.001314, 79940, 0.000000, 0.000000, 0.000000, 0.000000, -0.838413, -0.112292, 0.000000, 0, 1080, 1083, 1084, 1080
-0.742373, -0.404387, 9.846465, 0.018479, 0.066584, -0.002138, 6.723180, 3.361590, -45.644550, 1.858876, 1.032898, 152.230377, 0.075423, 0.017203, 0.001313, 79944, 0.000000, 0.000000, 0.000000, 0.000000, -1.858876, -1.032898, -0.000000, 0, 1080, 1084, 1094, 1080
-0.721436, -0.391825, 9.822537, 0.016493, 0.068417, -0.001069, 6.825490, 3.668518, -45.673779, 0.799028, 0.165077, 152.112198, 0.075397, 0.017201, 0.001313, 79936, 0.000000, 0.000000, 0.000000, 0.000000, -0.799028, -0.165077, 0.000000, 0, 1080, 1083, 1084, 1080
-0.720240, -0.397209, 9.847064, 0.012981, 0.066890, 0.004887, 6.416252, 4.311605, -46.360714, 1.841888, 0.936590, 152.095627, 0.075371, 0.017198, 0.001312, 79944, 0.000000, 0.000000, 0.000000, 0.000000, -1.841888, -0.936590, 0.000000, 0, 1080, 1084, 1094, 1080
-0.719641, -0.401994, 9.839287, 0.015119, 0.066584, -0.002749, 6.577024, 3.624671, -45.235313, 0.728231, 0.138756, 151.974167, 0.075346, 0.017195, 0.001312, 79932, 0.000000, 0.000000, 0.000000, 0.000000, -0.728231, -0.138756, 0.000000, 0, 1080, 1083, 1084, 1080
-0.742971, -0.394816, 9.859028, 0.019090, 0.065515, -0.001222, 6.810874, 3.873137, -45.688396, 1.813186, 0.979827, 152.080170, 0.075321, 0.017193, 0.001311, 79944, 0.000000, 0.000000, 0.000000, 0.000000, -1.813186, -0.979827, -0.000000, 0, 1080, 1084, 1094, 1080
-0.726820, -0.360120, 9.841680, 0.016799, 0.068111, -0.002749, 6.883952, 4.267758, -46.258404, 0.817938, 0.041275, 151.941956, 0.075294, 0.017192, 0.001311, 79936, 0.000000, 0.000000, 0.000000, 0.000000, -0.817938, -0.041275, 0.000000, 0, 1080, 1083, 1084, 1080
-0.699302, -0.403191, 9.863215, 0.017257, 0.060934, 0.004276, 7.059340, 3.536978, -46.243790, 2.003948, 0.737387, 152.087708, 0.075270, 0.017188, 0.001310, 79960, 0.000000, 0.000000, 0.000000, 0.000000, -2.003948, -0.737387, -0.000000, 0, 1080, 1086, 1094, 1080
-0.733400, -0.397807, 9.833304, 0.015882, 0.067501, -0.000764, 7.410114, 3.522362, -45.995323, 0.700371, 0.318779, 151.968140, 0.075249, 0.017181, 0.001310, 79928, 0.000000, 0.000000, 0.000000, 0.000000, -0.700371, -0.318779, 0.000000, 0, 1080, 1081, 1085, 1080
-0.721436, -0.381655, 9.845268, 0.019090, 0.068722, 0.000153, 7.410114, 4.311605, -45.439930, 2.036486, 0.628702, 152.080673, 0.075229, 0.017174, 0.001309, 79944, 0.000000, 0.000000, 0.000000, 0.000000, -2.036486, -0.628702, -0.000000, 0, 1080, 1087, 1093, 1080
-0.714258, -0.388235, 9.852448, 0.017257, 0.074831, -0.000611, 6.957030, 4.033908, -45.819935, 0.781957, 0.080860, 151.936279, 0.075207, 0.017169, 0.001309, 79940, 0.000000, 0.000000, 0.000000, 0.000000, -0.781957, -0.080860, 0.000000, 0, 1080, 1083, 1084, 1080
-0.715454, -0.396610, 9.844671, 0.017104, 0.073304, -0.003207, 6.810874, 3.303128, -46.477638, 1.968781, 0.779498, 152.075455, 0.075184, 0.017165, 0.001309, 79944, 0.000000, 0.000000, 0.000000, 0.000000, -1.968781, -0.779498, -0.000000, 0, 1080, 1086, 1094, 1080
-0.744766, -0.391227, 9.854840, 0.017410, 0.067195, -0.003665, 7.731658, 3.639287, -45.790707, 0.667723, 0.358192, 151.955933, 0.075163, 0.017158, 0.001308, 79932, 0.000000, 0.000000, 0.000000, 0.000000, -0.667723, -0.358192, 0.000000, 0, 1080, 1081, 1085, 1080
-0.712463, -0.383450, 9.824929, 0.015730, 0.061697, 0.002596, 7.760888, 4.092371, -45.966091, 2.020826, 0.608161, 152.103012, 0.075143, 0.017151, 0.001308, 79936, 0.000000, 0.000000, 0.000000, 0.000000, -2.020826, -0.608161, -0.000000, 0, 1080, 1087, 1093, 1080
-0.720838, -0.381057, 9.846465, 0.017104, 0.070708, -0.003818, 7.907045, 3.653902, -46.346100, 0.699317, 0.257975, 151.991989, 0.075122, 0.017144, 0.001307, 79944, 0.000000, 0.000000, 0.000000, 0.000000, -0.699317, -0.257975, 0.000000, 0, 1080, 1082, 1084, 1080
-0.735793, -0.378664, 9.839287, 0.018784, 0.068417, -0.000916, 7.439345, 3.653902, -45.936863, 1.962098, 0.808752, 152.139038, 0.075101, 0.017139, 0.001307, 79936, 0.000000, 0.000000, 0.000000, 0.000000, -1.962098, -0.808752, -0.000000, 0, 1080, 1085, 1094, 1080
-0.718445, -0.393021, 9.842278, 0.015272, 0.069180, -0.001374, 7.088570, 3.230050, -46.126862, 0.748701, 0.173454, 152.035950, 0.075078, 0.017134, 0.001306, 79936, 0.000000, 0.000000, 0.000000, 0.000000, -0.748701, -0.173454, 0.000000, 0, 1080, 1082, 1084, 1080
-0.733400, -0.394218, 9.830314, 0.017104, 0.070860, -0.002291, 7.527039, 3.960830, -46.463020, 1.909065, 0.910546, 152.169632, 0.075054, 0.017130, 0.001306, 79952, 0.000000, 0.000000, 0.000000, 0.000000, -1.909065, -0.910546, -0.000000, 0, 1080, 1085, 1094, 1080
-0.730409, -0.407378, 9.835697, 0.015730, 0.072693, -0.000458, 7.629348, 3.346974, -45.966091, 0.702765, 0.263430, 152.075760, 0.075032, 0.017126, 0.001305, 79932, 0.000000, 0.000000, 0.000000, 0.000000, -0.702765, -0.263430, 0.000000, 0, 1080, 1082, 1084, 1080
-0.723231, -0.397807, 9.842876, 0.012981, 0.059407, 0.002291, 7.790120, 3.507746, -46.273022, 1.986234, 0.761722, 152.245575, 0.075010, 0.017120, 0.001305, 79944, 0.000000, 0.000000, 0.000000, 0.000000, -1.986234, -0.761722, -0.000000, 0, 1080, 1086, 1094, 1080
-0.734596, -0.364307, 9.844072, 0.014355, 0.067348, -0.000305, 7.614733, 3.244665, -45.922245, 0.721654, 0.247613, 152.158401, 0.074989, 0.017114, 0.001304, 79936, 0.000000, 0.000000, 0.000000, 0.000000, -0.721654, -0.247613, 0.000000, 0, 1080, 1082, 1084, 1080
-0.717249, -0.385244, 9.841680, 0.017562, 0.064294, -0.003360, 7.760888, 3.405437, -46.316864, 2.022219, 0.702045, 152.326675, 0.074968, 0.017108, 0.001304, 79944, 0.000000, 0.000000, 0.000000, 0.000000, -2.022219, -0.702045, -0.000000, 0, 1080, 1086, 1093, 1080
-0.718445, -0.387637, 9.845867, 0.016952, 0.064599, 0.002596, 7.073955, 3.171587, -45.425312, 0.742221, 0.214866, 152.221527, 0.074947, 0.017102, 0.001303, 79948, 0.000000, 0.000000, 0.000000, 0.000000, -0.742221, -0.214866, 0.000000, 0, 1080, 1082, 1084, 1080
-0.724427, -0.384048, 9.844072, 0.016646, 0.064294, 0.003054, 7.380883, 3.843905, -45.016079, 1.993854, 0.785223, 152.362076, 0.074925, 0.017097, 0.001303, 79940, 0.000000, 0.000000, 0.000000, 0.000000, -1.993854, -0.785223, -0.000000, 0, 1080, 1086, 1094, 1080
-0.719043, -0.400798, 9.810574, 0.015119, 0.063530, 0.006872, 7.687811, 3.536978, -45.644550, 0.736812, 0.241379, 152.252884, 0.074903, 0.017091, 0.001302, 79936, 0.000000, 0.000000, 0.000000, 0.000000, -0.736812, -0.241379, 0.000000, 0, 1080, 1082, 1084, 1080
-0.728615, -0.373879, 9.869196, 0.015882, 0.066432, -0.001833, 7.863198, 3.113125, -45.483776, 2.031257, 0.713018, 152.428131, 0.074882, 0.017085, 0.001302, 79940, 0.000000, 0.000000, 0.000000, 0.000000, -2.031257, -0.713018, -0.000000, 0, 1080, 1086, 1094, 1080
-0.717249, -0.418146, 9.842876, 0.016188, 0.064752, 0.002596, 7.322420, 3.171587, -45.732243, 0.724385, 0.299837, 152.327911, 0.074862, 0.017079, 0.001302, 79940, 0.000000, 0.000000, 0.000000, 0.000000, -0.724385, -0.299837, 0.000000, 0, 1080, 1082, 1085, 1080
-0.726222, -0.393021, 9.851849, 0.018479, 0.067348, 0.000916, 7.527039, 3.273896, -45.659164, 2.022534, 0.761560, 152.496841, 0.074841, 0.017073, 0.001301, 79944, 0.000000, 0.000000, 0.000000, 0.000000, -2.022534, -0.761560, -0.000000, 0, 1080, 1086, 1094, 1080
-0.725025, -0.389432, 9.819546, 0.016952, 0.067195, -0.000611, 7.643963, 4.150833, -45.483776, 0.777097, 0.194277, 152.350555, 0.074819, 0.017068, 0.001301, 79928, 0.000000, 0.000000, 0.000000, 0.000000, -0.777097, -0.194277, 0.000000, 0, 1080, 1082, 1084, 1080
-0.708874, -0.362513, 9.819546, 0.016799, 0.071166, 0.001680, 7.190880, 4.092371, -45.907627, 2.084912, 0.616288, 152.463623, 0.074799, 0.017061, 0.001300, 79948, 0.000000, 0.000000, 0.000000, 0.000000, -2.084912, -0.616288, -0.000000, 0, 1080, 1087, 1093, 1080
-0.717847, -0.389432, 9.856635, 0.016188, 0.068875, -0.002902, 6.927799, 3.756212, -46.053783, 0.798506, 0.145180, 152.326324, 0.074778, 0.017055, 0.001300, 79940, 0.000000, 0.000000, 0.000000, 0.000000, -0.798506, -0.145180, 0.000000, 0, 1080, 1083, 1084, 1080
-0.713659, -0.372084, 9.832108, 0.015577, 0.075442, -0.001985, 7.658579, 3.346974, -45.863785, 2.065988, 0.685397, 152.489670, 0.074756, 0.017050, 0.001299, 79944, 0.000000, 0.000000, 0.000000, 0.000000, -2.065988, -0.685397, -0.000000, 0, 1080, 1087, 1094, 1080
-0.731007, -0.410967, 9.829117, 0.016341, 0.067348, -0.000611, 7.527039, 3.317743, -45.849167, 0.725565, 0.401714, 152.381241, 0.074737, 0.017043, 0.001299, 79936, 0.000000, 0.000000, 0.000000, 0.000000, -0.725565, -0.401714, 0.000000, 0, 1080, 1081, 1085, 1080
-0.731007, -0.380459, 9.832108, 0.020311, 0.071319, -0.001069, 7.337036, 3.493131, -45.966091, 2.054251, 0.767046, 152.535583, 0.074717, 0.017036, 0.001299, 79940, 0.000000, 0.000000, 0.000000, 0.000000, -2.054251, -0.767046, -0.000000, 0, 1080, 1086, 1094, 1080
-0.745364, -0.395414, 9.829117, 0.013134, 0.063377, 0.003054, 6.664718, 3.186203, -46.141479, 0.737901, 0.383965, 152.412476, 0.074696, 0.017029, 0.001298, 79940, 0.000000, 0.000000, 0.000000, 0.000000, -0.737901, -0.383965, 0.000000, 0, 1080, 1081, 1085, 1080
-0.714856, -0.370888, 9.858430, 0.012217, 0.062919, 0.001374, 6.562409, 3.770827, -45.264542, 2.109593, 0.466008, 152.523438, 0.074677, 0.017022, 0.001298, 79936, 0.000000, 0.000000, 0.000000, 0.000000, -2.109593, -0.466008, -0.000000, 0, 1080, 1088, 1093, 1080
-0.708874, -0.409173, 9.844072, 0.014355, 0.064446, 0.002749, 7.103186, 3.434668, -45.673779, 0.759607, 0.228618, 152.403610, 0.074658, 0.017014, 0.001297, 79944, 0.000000, 0.000000, 0.000000, 0.000000, -0.759607, -0.228618, 0.000000, 0, 1080, 1082, 1085, 1080
-0.720838, -0.387637, 9.846465, 0.014966, 0.073304, -0.000153, 6.445484, 3.449284, -45.863785, 2.024435, 0.770080, 152.529175, 0.074637, 0.017009, 0.001297, 79948, 0.000000, 0.000000, 0.000000, 0.000000, -2.024435, -0.770080, -0.000000, 0, 1080, 1086, 1094, 1080
-0.724427, -0.385244, 9.846465, 0.018631, 0.065973, 0.003207, 6.708565, 2.703888, -45.249928, 0.757613, 0.250699, 152.441162, 0.074615, 0.017003, 0.001296, 79936, 0.000000, 0.000000, 0.000000, 0.000000, -0.757613, -0.250699, 0.000000, 0, 1080, 1082, 1085, 1080
-0.743570, -0.402592, 9.870992, 0.020159, 0.066279, 0.003054, 6.825490, 3.697749, -46.609177, 1.908287, 0.999218, 152.561401, 0.074592, 0.017000, 0.001296, 79940, 0.000000, 0.000000, 0.000000, 0.000000, -1.908287, -0.999218, -0.000000, 0, 1080, 1084, 1094, 1080
-0.726222, -0.385244, 9.862019, 0.015119, 0.070402, 0.002749, 6.869336, 3.303128, -45.878399, 0.827963, 0.156793, 152.455414, 0.074567, 0.016998, 0.001295, 79944, 0.000000, 0.000000, 0.000000, 0.000000, -0.827963, -0.156793, 0.000000, 0, 1080, 1083, 1085, 1080
-0.720838, -0.382253, 9.868599, 0.016493, 0.069791, 0.000764, 6.796259, 3.259281, -46.302250, 2.058982, 0.774197, 152.595306, 0.074545, 0.016993, 0.001295, 79940, 0.000000, 0.000000, 0.000000, 0.000000, -2.058982, -0.774197, -0.000000, 0, 1080, 1086, 1094, 1080
-0.741775, -0.378664, 9.839287, 0.021075, 0.066279, 0.000611, 6.957030, 3.390821, -46.024555, 0.770491, 0.310403, 152.467438, 0.074525, 0.016987, 0.001294, 79936, 0.000000, 0.000000, 0.000000, 0.000000, -0.770491, -0.310403, 0.000000, 0, 1080, 1082, 1085, 1080
-0.710070, -0.375673, 9.848859, 0.017868, 0.064141, 0.001527, 6.971645, 3.230050, -45.951477, 2.111096, 0.629294, 152.619278, 0.074505, 0.016980, 0.001294, 79940, 0.000000, 0.000000, 0.000000, 0.000000, -2.111096, -0.629294, -0.000000, 0, 1080, 1087, 1094, 1080
-0.736989, -0.385843, 9.852448, 0.019853, 0.071013, -0.001833, 6.825490, 3.536978, -45.936863, 0.786257, 0.281471, 152.483185, 0.074485, 0.016974, 0.001293, 79936, 0.000000, 0.000000, 0.000000, 0.000000, -0.786257, -0.281471, 0.000000, 0, 1080, 1082, 1085, 1080
-0.700499, -0.380459, 9.827921, 0.015424, 0.059865, 0.001222, 6.606256, 3.156971, -46.316864, 2.131333, 0.578931, 152.627731, 0.074466, 0.016967, 0.001293, 79944, 0.000000, 0.000000, 0.000000, 0.000000, -2.131333, -0.578931, -0.000000, 0, 1080, 1087, 1093, 1080
-0.722034, -0.392423, 9.844072, 0.018021, 0.066432, 0.000000, 6.957030, 3.566209, -46.594563, 0.807955, 0.223289, 152.496231, 0.074446, 0.016960, 0.001293, 79936, 0.000000, 0.000000, 0.000000, 0.000000, -0.807955, -0.223289, 0.000000, 0, 1080, 1082, 1085, 1080
-0.719043, -0.388235, 9.827322, 0.011912, 0.066584, -0.003512, 7.234727, 3.303128, -45.425312, 2.069916, 0.773334, 152.654846, 0.074425, 0.016955, 0.001292, 79944, 0.000000, 0.000000, 0.000000, 0.000000, -2.069916, -0.773334, -0.000000, 0, 1080, 1086, 1094, 1080
-0.723829, -0.391825, 9.846465, 0.019548, 0.068111, -0.003207, 7.483192, 3.215434, -45.922245, 0.793052, 0.277606, 152.552765, 0.074404, 0.016949, 0.001292, 79936, 0.000000, 0.000000, 0.000000, 0.000000, -0.793052, -0.277606, 0.000000, 0, 1080, 1082, 1085, 1080
-0.725025, -0.384646, 9.848859, 0.016952, 0.065057, 0.001680, 6.825490, 4.019292, -45.396084, 2.070645, 0.757806, 152.648361, 0.074383, 0.016943, 0.001291, 79944, 0.000000, 0.000000, 0.000000, 0.000000, -2.070645, -0.757806, -0.000000, 0, 1080, 1086, 1094, 1080
-0.735793, -0.369691, 9.845268, 0.016493, 0.070402, -0.001374, 7.176264, 3.697749, -45.498390, 0.808126, 0.228302, 152.509720, 0.074362, 0.016938, 0.001291, 79940, 0.000000, 0.000000, 0.000000, 0.000000, -0.808126, -0.228302, 0.000000, 0, 1080, 1082, 1085, 1080
-0.712463, -0.380459, 9.841081, 0.015730, 0.064446, 0.003512, 7.117802, 3.668518, -46.243790, 2.097647, 0.706686, 152.648651, 0.074342, 0.016932, 0.001290, 79940, 0.000000, 0.000000, 0.000000, 0.000000, -2.097647, -0.706686, -0.000000, 0, 1080, 1087, 1094, 1080
-0.719641, -0.401396, 9.827921, 0.019548, 0.067959, -0.000458, 7.132418, 3.566209, -45.776089, 0.809493, 0.238765, 152.520737, 0.074321, 0.016926, 0.001290, 79944, 0.000000, 0.000000, 0.000000, 0.000000, -0.809493, -0.238765, 0.000000, 0, 1080, 1082, 1085, 1080
-0.721436, -0.399601, 9.843473, 0.018631, 0.072388, -0.000153, 7.643963, 3.332359, -46.287636, 2.067570, 0.798372, 152.692917, 0.074300, 0.016921, 0.001289, 79944, 0.000000, 0.000000, 0.000000, 0.000000, -2.067570, -0.798372, -0.000000, 0, 1080, 1086, 1094, 1080
-0.730409, -0.392423, 9.830912, 0.016035, 0.062156, 0.001374, 7.161649, 3.990061, -45.644550, 0.823958, 0.223536, 152.548431, 0.074279, 0.016916, 0.001289, 79936, 0.000000, 0.000000, 0.000000, 0.000000, -0.823958, -0.223536, 0.000000, 0, 1080, 1083, 1085, 1080
-0.716650, -0.384048, 9.847661, 0.017257, 0.063530, 0.000764, 7.132418, 3.376206, -45.703011, 2.096615, 0.748610, 152.700821, 0.074258, 0.016910, 0.001289, 79944, 0.000000, 0.000000, 0.000000, 0.000000, -2.096615, -0.748610, -0.000000, 0, 1080, 1086, 1094, 1080
-0.704686, -0.378066, 9.857233, 0.013286, 0.063988, 0.000458, 7.161649, 3.536978, -45.703011, 0.891136, 0.096569, 152.579300, 0.074236, 0.016906, 0.001288, 79936, 0.000000, 0.000000, 0.000000, 0.000000, -0.891136, -0.096569, 0.000000, 0, 1080, 1084, 1085, 1080
-0.716052, -0.391227, 9.823733, 0.019242, 0.065668, 0.001833, 7.030108, 3.668518, -46.419178, 1.987677, 0.921072, 152.704437, 0.074212, 0.016904, 0.001288, 79944, 0.000000, 0.000000, 0.000000, 0.000000, -1.987677, -0.921072, -0.000000, 0, 1080, 1085, 1094, 1080
-0.731007, -0.385244, 9.848260, 0.017257, 0.068264, -0.004123, 6.869336, 3.610055, -46.740719, 0.817077, 0.209084, 152.577805, 0.074189, 0.016900, 0.001287, 79932, 0.000000, 0.000000, 0.000000, 0.000000, -0.817077, -0.209084, 0.000000, 0, 1080, 1083, 1085, 1080
-0.732802, -0.382253, 9.844072, 0.016341, 0.065973, -0.000458, 7.132418, 4.384683, -46.053783, 1.946685, 0.950830, 152.633133, 0.074166, 0.016897, 0.001287, 79940, 0.000000, 0.000000, 0.000000, 0.000000, -1.946685, -0.950830, -0.000000, 0, 1080, 1085, 1094, 1080
-0.705883, -0.372084, 9.879965, 0.019242, 0.063835, -0.000305, 6.986261, 4.019292, -45.615318, 0.911841, 0.053930, 152.503601, 0.074141, 0.016895, 0.001286, 79940, 0.000000, 0.000000, 0.000000, 0.000000, -0.911841, -0.053930, 0.000000, 0, 1080, 1084, 1084, 1080
-0.715454, -0.383450, 9.831510, 0.014966, 0.064294, 0.001222, 6.957030, 4.296989, -45.893013, 1.794214, 1.064237, 152.535370, 0.074114, 0.016896, 0.001286, 79948, 0.000000, 0.000000, 0.000000, 0.000000, -1.794214, -1.064237, -0.000000, 0, 1080, 1083, 1094, 1080
-0.733998, -0.373280, 9.832705, 0.016035, 0.063835, 0.000153, 7.410114, 3.595440, -45.542240, 0.830240, 0.093247, 152.433517, 0.074088, 0.016896, 0.001285, 79932, 0.000000, 0.000000, 0.000000, 0.000000, -0.830240, -0.093247, 0.000000, 0, 1080, 1083, 1084, 1080
-0.732204, -0.378066, 9.834501, 0.020464, 0.068722, 0.000458, 7.132418, 3.536978, -46.784565, 1.968617, 0.867574, 152.564102, 0.074065, 0.016893, 0.001285, 79948, 0.000000, 0.000000, 0.000000, 0.000000, -1.968617, -0.867574, -0.000000, 0, 1080, 1085, 1094, 1080
-0.741177, -0.392423, 9.842876, 0.018479, 0.061392, 0.001374, 6.781643, 3.522362, -45.513008, 0.735195, 0.271458, 152.434052, 0.074043, 0.016888, 0.001284, 79932, 0.000000, 0.000000, 0.000000, 0.000000, -0.735195, -0.271458, 0.000000, 0, 1080, 1082, 1085, 1080
-0.730409, -0.396610, 9.833903, 0.010385, 0.058796, 0.006261, 6.840106, 3.449284, -45.819935, 1.984718, 0.846579, 152.574310, 0.074022, 0.016883, 0.001284, 79940, 0.000000, 0.000000, 0.000000, 0.000000, -1.984718, -0.846579, -0.000000, 0, 1080, 1085, 1094, 1080
-0.716650, -0.377468, 9.847661, 0.017104, 0.065515, 0.001985, 6.913184, 3.873137, -45.513008, 0.837368, 0.098736, 152.439590, 0.073999, 0.016880, 0.001283, 79940, 0.000000, 0.000000, 0.000000, 0.000000, -0.837368, -0.098736, 0.000000, 0, 1080, 1083, 1084, 1080
-0.738784, -0.367298, 9.869795, 0.016952, 0.067501, -0.001374, 7.161649, 3.522362, -45.045307, 1.991916, 0.849017, 152.572937, 0.073977, 0.016877, 0.001283, 79952, 0.000000, 0.000000, 0.000000, 0.000000, -1.991916, -0.849017, -0.000000, 0, 1080, 1085, 1094, 1080
-0.725623, -0.363709, 9.868599, 0.012675, 0.063072, 0.004581, 7.453961, 3.639287, -46.506870, 0.839144, 0.110469, 152.453339, 0.073954, 0.016873, 0.001283, 79936, 0.000000, 0.000000, 0.000000, 0.000000, -0.839144, -0.110469, 0.000000, 0, 1080, 1083, 1084, 1080
-0.720240, -0.375673, 9.809975, 0.014966, 0.062156, 0.002443, 7.439345, 3.946214, -45.600700, 1.999450, 0.844989, 152.580078, 0.073931, 0.016870, 0.001282, 79944, 0.000000, 0.000000, 0.000000, 0.000000, -1.999450, -0.844989, -0.000000, 0, 1080, 1085, 1094, 1080
-0.733400, -0.373280, 9.823733, 0.015119, 0.064599, 0.001680, 6.781643, 3.551593, -46.214558, 0.793438, 0.195303, 152.450256, 0.073910, 0.016866, 0.001282, 79936, 0.000000, 0.000000, 0.000000, 0.000000, -0.793438, -0.195303, 0.000000, 0, 1080, 1083, 1085, 1080
-0.716650, -0.374477, 9.829716, 0.017257, 0.062766, 0.002443, 7.088570, 3.858521, -45.819935, 2.055448, 0.739341, 152.574463, 0.073889, 0.016861, 0.001281, 79940, 0.000000, 0.000000, 0.000000, 0.000000, -2.055448, -0.739341, -0.000000, 0, 1080, 1086, 1094, 1080
-0.713659, -0.380459, 9.849456, 0.014203, 0.068570, -0.002291, 6.810874, 3.259281, -46.579948, 0.821926, 0.142086, 152.459122, 0.073868, 0.016856, 0.001281, 79940, 0.000000, 0.000000, 0.000000, 0.000000, -0.821926, -0.142086, 0.000000, 0, 1080, 1083, 1084, 1080
-0.738186, -0.404387, 9.841680, 0.015272, 0.061850, 0.000764, 7.044724, 3.931599, -46.068401, 1.788362, 1.107813, 152.559692, 0.073842, 0.016855, 0.001280, 79940, 0.000000, 0.000000, 0.000000, 0.000000, -1.788362, -1.107813, -0.000000, 0, 1080, 1083, 1094, 1080
-0.714856, -0.379262, 9.844072, 0.015119, 0.070708, -0.002138, 7.410114, 3.800058, -45.732243, 0.881573, 0.082357, 152.454666, 0.073815, 0.016856, 0.001280, 79936, 0.000000, 0.000000, 0.000000, 0.000000, -0.881573, -0.082357, 0.000000, 0, 1080, 1084, 1084, 1080
-0.719043, -0.371486, 9.853046, 0.016646, 0.066279, 0.000153, 7.088570, 3.405437, -45.834549, 2.068714, 0.779390, 152.594376, 0.073793, 0.016852, 0.001279, 79944, 0.000000, 0.000000, 0.000000, 0.000000, -2.068714, -0.779390, -0.000000, 0, 1080, 1086, 1094, 1080
-0.714856, -0.384048, 9.841081, 0.018326, 0.067653, -0.000153, 7.205495, 3.726980, -45.746857, 0.850871, 0.152229, 152.463882, 0.073772, 0.016848, 0.001279, 79936, 0.000000, 0.000000, 0.000000, 0.000000, -0.850871, -0.152229, 0.000000, 0, 1080, 1083, 1085, 1080
-0.729811, -0.396610, 9.829117, 0.016035, 0.069791, -0.003971, 7.380883, 3.610055, -45.878399, 1.974136, 0.944052, 152.607910, 0.073749, 0.016845, 0.001279, 79944, 0.000000, 0.000000, 0.000000, 0.000000, -1.974136, -0.944052, -0.000000, 0, 1080, 1085, 1094, 1080
-0.711267, -0.388834, 9.836893, 0.017410, 0.065210, 0.000764, 7.015493, 4.033908, -45.893013, 0.867114, 0.137121, 152.474335, 0.073725, 0.016843, 0.001278, 79936, 0.000000, 0.000000, 0.000000, 0.000000, -0.867114, -0.137121, 0.000000, 0, 1080, 1083, 1085, 1080
-0.724427, -0.402592, 9.841680, 0.016952, 0.076205, -0.004429, 6.869336, 4.764689, -46.112247, 0.597797, 1.098374, 152.149780, 0.073693, 0.016843, 0.001278, 79944, 0.000000, 0.000000, 0.000000, 0.000000, -0.597797, -1.098374, 0.000000, 0, 1080, 1080, 1088, 1082
-0.735195, -0.401396, 9.864411, 0.017868, 0.064752, 0.004734, 6.737796, 3.668518, -45.542240, 1.643410, 0.207262, 152.239288, 0.073669, 0.016841, 0.001278, 79940, 0.000000, 0.000000, 0.000000, 0.000000, -1.643410, -0.207262, -0.000000, 0, 1080, 1087, 1089, 1080
-0.719641, -0.404387, 9.822537, 0.013592, 0.058490, -0.035736, 6.854721, 3.785443, -46.273022, 0.308959, 0.463300, 152.104782, 0.073650, 0.016834, 0.001277, 79940, 0.000000, 0.000000, 0.000000, 0.000000, -0.308959, -0.463300, 0.000000, 0, 1080, 1080, 1083, 1080
-0.738186, -0.390030, 9.859627, 0.016035, 0.070402, -0.000611, 6.781643, 4.092371, -46.404560, 1.677345, 0.629293, 152.221405, 0.073631, 0.016827, 0.001277, 79944, 0.000000, 0.000000, 0.000000, 0.000000, -1.677345, -0.629293, -0.000000, 0, 1080, 1085, 1091, 1080
-0.723231, -0.384646, 9.841081, 0.011759, 0.070860, -0.000611, 7.965508, 3.610055, -46.287636, 0.439454, 0.107229, 152.170944, 0.073611, 0.016822, 0.001276, 79940, 0.000000, 0.000000, 0.000000, 0.000000, -0.439454, -0.107229, 0.000000, 0, 1080, 1081, 1082, 1080
-0.728615, -0.371486, 9.872188, 0.015272, 0.064446, 0.003207, 7.030108, 4.019292, -46.243790, 1.714498, 0.630921, 152.289566, 0.073590, 0.016816, 0.001276, 79944, 0.000000, 0.000000, 0.000000, 0.000000, -1.714498, -0.630921, -0.000000, 0, 1080, 1085, 1091, 1080
-0.721436, -0.396012, 9.858430, 0.019242, 0.071319, -0.002443, 7.541654, 3.741596, -45.849167, 0.457278, 0.107419, 152.175888, 0.073570, 0.016811, 0.001275, 79936, 0.000000, 0.000000, 0.000000, 0.000000, -0.457278, -0.107419, 0.000000, 0, 1080, 1081, 1082, 1080
-0.710668, -0.384048, 9.864411, 0.017868, 0.076205, -0.000916, 6.927799, 3.990061, -46.477638, 1.758035, 0.563794, 152.295486, 0.073550, 0.016805, 0.001275, 79944, 0.000000, 0.000000, 0.000000, 0.000000, -1.758035, -0.563794, -0.000000, 0, 1080, 1086, 1091, 1080
-0.719043, -0.409173, 9.824332, 0.017562, 0.065057, -0.000764, 6.679334, 4.004677, -46.170712, 0.482550, 0.070933, 152.151535, 0.073530, 0.016799, 0.001275, 79936, 0.000000, 0.000000, 0.000000, 0.000000, -0.482550, -0.070933, 0.000000, 0, 1080, 1082, 1082, 1080
-0.716052, -0.382253, 9.837492, 0.014661, 0.075289, -0.003818, 7.044724, 3.960830, -45.176849, 1.746265, 0.620389, 152.274353, 0.073510, 0.016794, 0.001274, 79940, 0.000000, 0.000000, 0.000000, 0.000000, -1.746265, -0.620389, -0.000000, 0, 1080, 1085, 1092, 1080
-0.716650, -0.379861, 9.841081, 0.012675, 0.070097, -0.003971, 7.015493, 4.063139, -45.819935, 0.545124, -0.028817, 152.127945, 0.073489, 0.016790, 0.001274, 79936, 0.000000, 0.000000, 0.000000, 0.000000, -0.545124, 0.028817, 0.000000, 0, 1080, 1082, 1082, 1080
-0.718445, -0.372084, 9.863814, 0.017562, 0.059865, 0.000764, 7.088570, 4.048524, -45.717628, 1.760468, 0.619510, 152.242813, 0.073467, 0.016786, 0.001273, 79944, 0.000000, 0.000000, 0.000000, 0.000000, -1.760468, -0.619510, -0.000000, 0, 1080, 1085, 1092, 1080
-0.726820, -0.389432, 9.847064, 0.015119, 0.067348, 0.003360, 7.059340, 3.697749, -45.951477, 0.482952, 0.139565, 152.112686, 0.073447, 0.016780, 0.001273, 79936, 0.000000, 0.000000, 0.000000, 0.000000, -0.482952, -0.139565, 0.000000, 0, 1080, 1081, 1083, 1080
-0.718445, -0.388235, 9.851252, 0.016646, 0.065057, -0.000153, 7.234727, 3.726980, -46.170712, 1.769951, 0.633461, 152.251099, 0.073428, 0.016775, 0.001272, 79944, 0.000000, 0.000000, 0.000000, 0.000000, -1.769951, -0.633461, -0.000000, 0, 1080, 1085, 1092, 1080
-0.729213, -0.404985, 9.850055, 0.014508, 0.069028, -0.000916, 7.293190, 3.902368, -46.053783, 0.479585, 0.185234, 152.115417, 0.073408, 0.016769, 0.001272, 79932, 0.000000, 0.000000, 0.000000, 0.000000, -0.479585, -0.185234, 0.000000, 0, 1080, 1081, 1083, 1080
-0.719043, -0.396012, 9.818350, 0.014355, 0.067501, -0.000153, 7.147033, 3.756212, -45.191463, 1.768761, 0.672618, 152.254379, 0.073388, 0.016763, 0.001272, 79956, 0.000000, 0.000000, 0.000000, 0.000000, -1.768761, -0.672618, -0.000000, 0, 1080, 1085, 1092, 1080
-0.730409, -0.372084, 9.833903, 0.015730, 0.071166, -0.002291, 7.380883, 3.726980, -45.980705, 0.529402, 0.108366, 152.127991, 0.073368, 0.016758, 0.001271, 79944, 0.000000, 0.000000, 0.000000, 0.000000, -0.529402, -0.108366, 0.000000, 0, 1080, 1082, 1083, 1080
-0.710070, -0.393021, 9.835697, 0.018631, 0.062919, 0.002291, 7.161649, 4.399299, -45.849167, 1.805645, 0.617139, 152.230667, 0.073348, 0.016753, 0.001271, 79940, 0.000000, 0.000000, 0.000000, 0.000000, -1.805645, -0.617139, -0.000000, 0, 1080, 1086, 1092, 1080
-0.698106, -0.373280, 9.845867, 0.020769, 0.064446, -0.001680, 6.913184, 4.106986, -46.302250, 0.666435, -0.138243, 152.090698, 0.073325, 0.016750, 0.001270, 79944, 0.000000, 0.000000, 0.000000, 0.000000, -0.666435, 0.138243, 0.000000, 0, 1080, 1084, 1082, 1080
-0.708275, -0.388834, 9.836893, 0.015424, 0.066279, -0.001527, 7.395498, 3.566209, -46.126862, 1.823662, 0.608967, 152.230804, 0.073303, 0.016747, 0.001270, 79940, 0.000000, 0.000000, 0.000000, 0.000000, -1.823662, -0.608967, -0.000000, 0, 1080, 1086, 1092, 1080
-0.717249, -0.371486, 9.829117, 0.016188, 0.063377, 0.000764, 7.234727, 4.019292, -46.302250, 0.594263, 0.014751, 152.086792, 0.073282, 0.016742, 0.001269, 79944, 0.000000, 0.000000, 0.000000, 0.000000, -0.594263, -0.014751, 0.000000, 0, 1080, 1082, 1083, 1080
-0.741177, -0.404387, 9.817153, 0.017562, 0.076969, -0.005498, 8.067817, 3.931599, -46.667641, 1.715680, 0.814252, 152.232697, 0.073260, 0.016740, 0.001269, 79932, 0.000000, 0.000000, 0.000000, 0.000000, -1.715680, -0.814252, -0.000000, 0, 1080, 1084, 1092, 1080
-0.714856, -0.386441, 9.845268, 0.014813, 0.075595, -0.003054, 7.790120, 4.048524, -46.214558, 0.649597, -0.038708, 152.114868, 0.073236, 0.016738, 0.001269, 79928, 0.000000, 0.000000, 0.000000, 0.000000, -0.649597, 0.038708, 0.000000, 0, 1080, 1083, 1083, 1080
-0.725025, -0.396610, 9.852448, 0.016341, 0.064141, 0.003207, 7.351652, 4.048524, -46.097633, 1.746763, 0.790766, 152.233475, 0.073213, 0.016736, 0.001268, 79948, 0.000000, 0.000000, 0.000000, 0.000000, -1.746763, -0.790766, -0.000000, 0, 1080, 1084, 1092, 1080
-0.725025, -0.375673, 9.872188, 0.017257, 0.075747, -0.004123, 7.775504, 3.843905, -45.980705, 0.658802, -0.030425, 152.124557, 0.073190, 0.016733, 0.001268, 79928, 0.000000, 0.000000, 0.000000, 0.000000, -0.658802, 0.030425, 0.000000, 0, 1080, 1083, 1083, 1080
-0.733998, -0.385244, 9.847064, 0.016188, 0.076358, -0.002138, 7.103186, 4.209296, -46.009941, 1.716589, 0.847041, 152.219360, 0.073166, 0.016732, 0.001267, 79948, 0.000000, 0.000000, 0.000000, 0.000000, -1.716589, -0.847041, -0.000000, 0, 1080, 1084, 1093, 1080
-0.711267, -0.391825, 9.862617, 0.016341, 0.063835, 0.003360, 7.424729, 3.610055, -46.492256, 0.700583, -0.067765, 152.127075, 0.073142, 0.016731, 0.001267, 79932, 0.000000, 0.000000, 0.000000, 0.000000, -0.700583, 0.067765, 0.000000, 0, 1080, 1083, 1083, 1080
-0.722632, -0.377468, 9.853643, 0.015272, 0.066126, -0.001374, 7.307805, 4.209296, -46.053783, 1.793745, 0.765612, 152.230713, 0.073119, 0.016729, 0.001266, 79948, 0.000000, 0.000000, 0.000000, 0.000000, -1.793745, -0.765612, -0.000000, 0, 1080, 1085, 1093, 1080
-0.724427, -0.369691, 9.851252, 0.015882, 0.067959, -0.000916, 7.220111, 4.033908, -45.629932, 0.661712, 0.001266, 152.090485, 0.073096, 0.016726, 0.001266, 79932, 0.000000, 0.000000, 0.000000, 0.000000, -0.661712, -0.001266, 0.000000, 0, 1080, 1083, 1083, 1080
-0.742373, -0.379262, 9.854840, 0.013897, 0.065363, 0.003818, 7.220111, 4.180064, -46.156094, 1.739130, 0.855669, 152.192093, 0.073073, 0.016724, 0.001265, 79964, 0.000000, 0.000000, 0.000000, 0.000000, -1.739130, -0.855669, -0.000000, 0, 1080, 1084, 1093, 1080
-0.713061, -0.399601, 9.816555, 0.014813, 0.059712, 0.004429, 7.877813, 3.800058, -46.316864, 0.654642, 0.022806, 152.095215, 0.073050, 0.016722, 0.001265, 79940, 0.000000, 0.000000, 0.000000, 0.000000, -0.654642, -0.022806, 0.000000, 0, 1080, 1083, 1083, 1080
-0.744766, -0.381655, 9.802795, 0.017410, 0.068417, -0.001527, 7.833967, 3.843905, -45.615318, 1.782847, 0.812937, 152.235474, 0.073028, 0.016720, 0.001264, 79944, 0.000000, 0.000000, 0.000000, 0.000000, -1.782847, -0.812937, -0.000000, 0, 1080, 1084, 1093, 1080
-0.744168, -0.379861, 9.856036, 0.014050, 0.065821, 0.003360, 7.483192, 4.077755, -46.711487, 0.587898, 0.151473, 152.093109, 0.073006, 0.016716, 0.001264, 79936, 0.000000, 0.000000, 0.000000, 0.000000, -0.587898, -0.151473, 0.000000, 0, 1080, 1082, 1083, 1080
-0.729213, -0.391825, 9.858430, 0.016188, 0.068722, -0.000458, 7.424729, 3.858521, -45.922245, 1.828329, 0.750618, 152.231781, 0.072986, 0.016711, 0.001264, 79948, 0.000000, 0.000000, 0.000000, 0.000000, -1.828329, -0.750618, -0.000000, 0, 1080, 1085, 1093, 1080
-0.725025, -0.388235, 9.857233, 0.012981, 0.070708, -0.000764, 7.673195, 3.683133, -46.360714, 0.615923, 0.121149, 152.122284, 0.072965, 0.016707, 0.001263, 79936, 0.000000, 0.000000, 0.000000, 0.000000, -0.615923, -0.121149, 0.000000, 0, 1080, 1082, 1083, 1080
-0.731007, -0.397209, 9.839287, 0.018784, 0.068570, -0.001833, 7.424729, 4.355452, -46.024555, 1.780147, 0.847809, 152.229584, 0.072944, 0.016704, 0.001263, 79924, 0.000000, 0.000000, 0.000000, 0.000000, -1.780147, -0.847809, -0.000000, 0, 1080, 1084, 1093, 1080
-0.728615, -0.398405, 9.827322, 0.013439, 0.067195, 0.001374, 7.220111, 3.975446, -45.688396, 0.613235, 0.133707, 152.095596, 0.072922, 0.016700, 0.001262, 79936, 0.000000, 0.000000, 0.000000, 0.000000, -0.613235, -0.133707, 0.000000, 0, 1080, 1082, 1083, 1080
-0.731007, -0.379861, 9.820743, 0.017410, 0.064904, -0.002138, 7.307805, 3.960830, -45.498390, 1.833994, 0.770750, 152.222900, 0.072902, 0.016696, 0.001262, 79944, 0.000000, 0.000000, 0.000000, 0.000000, -1.833994, -0.770750, -0.000000, 0, 1080, 1085, 1093, 1080
-0.715454, -0.394816, 9.835697, 0.016952, 0.063530, 0.000764, 7.629348, 3.916983, -46.039169, 0.651255, 0.083930, 152.099762, 0.072880, 0.016692, 0.001261, 79936, 0.000000, 0.000000, 0.000000, 0.000000, -0.651255, -0.083930, 0.000000, 0, 1080, 1082, 1083, 1080
-0.711865, -0.405583, 9.856635, 0.017868, 0.065668, -0.000611, 7.804736, 3.873137, -46.097633, 1.876069, 0.711915, 152.254959, 0.072860, 0.016688, 0.001261, 79940, 0.000000, 0.000000, 0.000000, 0.000000, -1.876069, -0.711915, -0.000000, 0, 1080, 1085, 1093, 1080
-0.713061, -0.384048, 9.865608, 0.020006, 0.064446, 0.003971, 6.927799, 4.282373, -45.893013, 0.713081, -0.007941, 152.107132, 0.072838, 0.016685, 0.001261, 79932, 0.000000, 0.000000, 0.000000, 0.000000, -0.713081, 0.007941, 0.000000, 0, 1080, 1083, 1083, 1080
-0.738186, -0.403191, 9.835697, 0.014661, 0.066126, -0.002291, 7.088570, 3.990061, -45.966091, 1.683784, 0.962980, 152.209534, 0.072813, 0.016685, 0.001260, 79956, 0.000000, 0.000000, 0.000000, 0.000000, -1.683784, -0.962980, -0.000000, 0, 1080, 1083, 1093, 1080
-0.733400, -0.352343, 9.848859, 0.014508, 0.066279, 0.001069, 7.527039, 3.887752, -44.972229, 0.855426, -0.121091, 152.102661, 0.072787, 0.016686, 0.001260, 79936, 0.000000, 0.000000, 0.000000, 0.000000, -0.855426, 0.121091, 0.000000, 0, 1080, 1084, 1083, 1080
-0.715454, -0.389432, 9.842876, 0.015577, 0.064752, 0.001222, 6.737796, 3.668518, -45.381470, 1.812425, 0.864242, 152.207199, 0.072762, 0.016686, 0.001259, 79960, 0.000000, 0.000000, 0.000000, 0.000000, -1.812425, -0.864242, -0.000000, 0, 1080, 1084, 1093, 1080
-0.698106, -0.388235, 9.827322, 0.017257, 0.058796, 0.001374, 6.825490, 4.106986, -45.352234, 0.763056, -0.015131, 152.076385, 0.072739, 0.016685, 0.001259, 79932, 0.000000, 0.000000, 0.000000, 0.000000, -0.763056, 0.015131, 0.000000, 0, 1080, 1083, 1083, 1080
-0.728615, -0.379262, 9.805787, 0.012675, 0.065821, -0.006261, 7.585502, 3.536978, -46.287636, 1.899887, 0.762134, 152.219925, 0.072717, 0.016682, 0.001258, 79952, 0.000000, 0.000000, 0.000000, 0.000000, -1.899887, -0.762134, -0.000000, 0, 1080, 1085, 1093, 1080
-0.738186, -0.381655, 9.829117, 0.014050, 0.063225, -0.000458, 7.190880, 3.449284, -45.834549, 0.628454, 0.259497, 152.101120, 0.072697, 0.016677, 0.001258, 79928, 0.000000, 0.000000, 0.000000, 0.000000, -0.628454, -0.259497, 0.000000, 0, 1080, 1081, 1084, 1080
-0.695713, -0.377468, 9.852448, 0.017257, 0.069486, -0.000153, 7.205495, 3.785443, -45.703011, 1.987528, 0.485308, 152.240952, 0.072679, 0.016670, 0.001258, 79940, 0.000000, 0.000000, 0.000000, 0.000000, -1.987528, -0.485308, -0.000000, 0, 1080, 1087, 1092, 1080
-0.714258, -0.378066, 9.841680, 0.015119, 0.064141, 0.001069, 7.921661, 3.990061, -45.439930, 0.654959, 0.186215, 152.107315, 0.072661, 0.016663, 0.001257, 79948, 0.000000, 0.000000, 0.000000, 0.000000, -0.654959, -0.186215, 0.000000, 0, 1080, 1082, 1084, 1080
-0.720838, -0.374477, 9.822537, 0.018784, 0.065821, 0.002138, 7.410114, 3.916983, -46.039169, 1.930143, 0.706129, 152.242554, 0.072642, 0.016658, 0.001257, 79924, 0.000000, 0.000000, 0.000000, 0.000000, -1.930143, -0.706129, -0.000000, 0, 1080, 1086, 1093, 1080
-0.708874, -0.399601, 9.850653, 0.015577, 0.065363, 0.000000, 7.366267, 3.741596, -46.243790, 0.700437, 0.104027, 152.120758, 0.072622, 0.016654, 0.001256, 79936, 0.000000, 0.000000, 0.000000, 0.000000, -0.700437, -0.104027, 0.000000, 0, 1080, 1083, 1084, 1080
-0.711865, -0.397209, 9.845867, 0.014813, 0.062614, 0.001374, 7.176264, 4.077755, -45.951477, 1.906230, 0.759481, 152.239365, 0.072601, 0.016650, 0.001256, 79944, 0.000000, 0.000000, 0.000000, 0.000000, -1.906230, -0.759481, -0.000000, 0, 1080, 1085, 1093, 1080
-0.722632, -0.390030, 9.867402, 0.015882, 0.066584, -0.001222, 7.161649, 3.624671, -46.024555, 0.689075, 0.133489, 152.117050, 0.072581, 0.016645, 0.001255, 79936, 0.000000, 0.000000, 0.000000, 0.000000, -0.689075, -0.133489, 0.000000, 0, 1080, 1082, 1084, 1080
-0.729213, -0.399003, 9.863814, 0.020311, 0.070708, 0.000764, 7.117802, 4.048524, -45.907627, 1.847256, 0.871133, 152.231125, 0.072559, 0.016642, 0.001255, 79944, 0.000000, 0.000000, 0.000000, 0.000000, -1.847256, -0.871133, -0.000000, 0, 1080, 1084, 1093, 1080
-0.721436, -0.382852, 9.830912, 0.015119, 0.069333, -0.000611, 7.132418, 3.785443, -45.878399, 0.726614, 0.085929, 152.106583, 0.072537, 0.016640, 0.001255, 79928, 0.000000, 0.000000, 0.000000, 0.000000, -0.726614, -0.085929, 0.000000, 0, 1080, 1083, 1084, 1080
-0.721436, -0.385244, 9.842876, 0.015424, 0.067348, -0.001985, 7.015493, 3.800058, -45.746857, 1.908192, 0.790378, 152.229904, 0.072516, 0.016636, 0.001254, 79948, 0.000000, 0.000000, 0.000000, 0.000000, -1.908192, -0.790378, -0.000000, 0, 1080, 1085, 1093, 1080
-0.715454, -0.413360, 9.848260, 0.016341, 0.069944, 0.000611, 7.453961, 4.136218, -45.220695, 0.698410, 0.149144, 152.091339, 0.072496, 0.016632, 0.001254, 79952, 0.000000, 0.000000, 0.000000, 0.000000, -0.698410, -0.149144, 0.000000, 0, 1080, 1082, 1084, 1080
-0.720838, -0.381057, 9.824929, 0.016799, 0.073762, -0.001527, 7.395498, 3.610055, -45.542240, 1.946468, 0.732782, 152.238892, 0.072476, 0.016627, 0.001253, 79944, 0.000000, 0.000000, 0.000000, 0.000000, -1.946468, -0.732782, -0.000000, 0, 1080, 1086, 1093, 1080
-0.723231, -0.376870, 9.837492, 0.017562, 0.072082, -0.002138, 6.708565, 3.960830, -46.170712, 0.746341, 0.074953, 152.096405, 0.072455, 0.016623, 0.001253, 79936, 0.000000, 0.000000, 0.000000, 0.000000, -0.746341, -0.074953, 0.000000, 0, 1080, 1083, 1084, 1080
-0.712463, -0.359522, 9.843473, 0.016493, 0.068111, 0.000458, 6.869336, 3.200819, -45.966091, 2.011157, 0.623677, 152.235992, 0.072436, 0.016619, 0.001253, 79948, 0.000000, 0.000000, 0.000000, 0.000000, -2.011157, -0.623677, -0.000000, 0, 1080, 1087, 1093, 1080
-0.727418, -0.381057, 9.838091, 0.015882, 0.062156, -0.002596, 7.468577, 3.493131, -46.521484, 0.684385, 0.290763, 152.119156, 0.072418, 0.016612, 0.001252, 79936, 0.000000, 0.000000, 0.000000, 0.000000, -0.684385, -0.290763, 0.000000, 0, 1080, 1082, 1084, 1080
-0.723829, -0.391227, 9.851252, 0.014661, 0.066126, -0.002138, 6.825490, 3.230050, -46.112247, 1.990180, 0.730843, 152.266342, 0.072399, 0.016606, 0.001252, 79940, 0.000000, 0.000000, 0.000000, 0.000000, -1.990180, -0.730843, -0.000000, 0, 1080, 1086, 1093, 1080
-0.749552, -0.408574, 9.833304, 0.016341, 0.073457, 0.000458, 7.132418, 3.668518, -45.673779, 0.664455, 0.388908, 152.130966, 0.072381, 0.016600, 0.001251, 79920, 0.000000, 0.000000, 0.000000, 0.000000, -0.664455, -0.388908, 0.000000, 0, 1080, 1081, 1085, 1080
-0.714856, -0.375673, 9.842278, 0.018173, 0.066737, 0.000305, 7.044724, 3.332359, -46.229172, 2.022410, 0.626589, 152.280350, 0.072364, 0.016593, 0.001251, 79944, 0.000000, 0.000000, 0.000000, 0.000000, -2.022410, -0.626589, -0.000000, 0, 1080, 1087, 1093, 1080
-0.721436, -0.381057, 9.824929, 0.017715, 0.063683, 0.001374, 7.263958, 3.726980, -46.170712, 0.726146, 0.186850, 152.147339, 0.072345, 0.016588, 0.001251, 79948, 0.000000, 0.000000, 0.000000, 0.000000, -0.726146, -0.186850, 0.000000, 0, 1080, 1082, 1084, 1080
-0.712463, -0.388235, 9.835697, 0.018937, 0.067195, -0.003207, 7.322420, 3.566209, -45.746857, 2.002714, 0.703593, 152.298950, 0.072326, 0.016582, 0.001250, 79936, 0.000000, 0.000000, 0.000000, 0.000000, -2.002714, -0.703593, -0.000000, 0, 1080, 1086, 1093, 1080
-0.713659, -0.372084, 9.838091, 0.016493, 0.071624, -0.003054, 7.366267, 3.639287, -46.083015, 0.774947, 0.099422, 152.176254, 0.072306, 0.016578, 0.001250, 79936, 0.000000, 0.000000, 0.000000, 0.000000, -0.774947, -0.099422, 0.000000, 0, 1080, 1083, 1084, 1080
-0.733400, -0.382253, 9.857233, 0.016799, 0.068264, 0.002902, 7.687811, 3.566209, -46.550716, 1.957656, 0.805342, 152.327271, 0.072285, 0.016575, 0.001249, 79948, 0.000000, 0.000000, 0.000000, 0.000000, -1.957656, -0.805342, -0.000000, 0, 1080, 1085, 1094, 1080
-0.723829, -0.392423, 9.865608, 0.018326, 0.070402, -0.002902, 6.942414, 3.683133, -45.980705, 0.751355, 0.157095, 152.198410, 0.072265, 0.016571, 0.001249, 79936, 0.000000, 0.000000, 0.000000, 0.000000, -0.751355, -0.157095, 0.000000, 0, 1080, 1083, 1084, 1080
-0.717847, -0.392423, 9.845867, 0.017104, 0.059559, 0.001527, 7.322420, 3.668518, -45.717628, 1.982131, 0.771933, 152.344849, 0.072245, 0.016566, 0.001249, 79936, 0.000000, 0.000000, 0.000000, 0.000000, -1.982131, -0.771933, -0.000000, 0, 1080, 1086, 1094, 1080
-0.715454, -0.399601, 9.843473, 0.015119, 0.064599, 0.000611, 7.044724, 3.858521, -46.156094, 0.765850, 0.140685, 152.211929, 0.072225, 0.016562, 0.001248, 79952, 0.000000, 0.000000, 0.000000, 0.000000, -0.765850, -0.140685, 0.000000, 0, 1080, 1083, 1084, 1080
-0.716052, -0.390628, 9.832108, 0.012981, 0.060781, 0.001527, 6.708565, 4.019292, -45.776089, 1.947787, 0.826144, 152.305313, 0.072205, 0.016558, 0.001248, 79944, 0.000000, 0.000000, 0.000000, 0.000000, -1.947787, -0.826144, -0.000000, 0, 1080, 1085, 1094, 1080
-0.730409, -0.367896, 9.827322, 0.016035, 0.065057, 0.001069, 7.804736, 3.741596, -45.732243, 0.755357, 0.157583, 152.186615, 0.072184, 0.016555, 0.001247, 79936, 0.000000, 0.000000, 0.000000, 0.000000, -0.755357, -0.157583, 0.000000, 0, 1080, 1083, 1084, 1080
-0.722632, -0.357129, 9.850653, 0.017715, 0.070402, 0.000000, 7.073955, 3.887752, -45.688396, 2.017536, 0.707400, 152.306564, 0.072165, 0.016550, 0.001247, 79944, 0.000000, 0.000000, 0.000000, 0.000000, -2.017536, -0.707400, -0.000000, 0, 1080, 1086, 1093, 1080
-0.720838, -0.363111, 9.860224, 0.017410, 0.067653, -0.001985, 7.015493, 3.785443, -46.229172, 0.802331, 0.077958, 152.169693, 0.072145, 0.016546, 0.001246, 79936, 0.000000, 0.000000, 0.000000, 0.000000, -0.802331, -0.077958, 0.000000, 0, 1080, 1083, 1084, 1080
-0.717249, -0.376271, 9.851252, 0.017562, 0.067959, 0.000305, 7.088570, 3.522362, -46.199944, 2.006901, 0.745923, 152.306442, 0.072125, 0.016542, 0.001246, 79960, 0.000000, 0.000000, 0.000000, 0.000000, -2.006901, -0.745923, -0.000000, 0, 1080, 1086, 1094, 1080
-0.735793, -0.372682, 9.836296, 0.015577, 0.067042, -0.003054, 7.643963, 2.923122, -45.659164, 0.693527, 0.387473, 152.261459, 0.072106, 0.016536, 0.001246, 79904, 0.000000, 0.000000, 0.000000, 0.000000, -0.693527, -0.387473, 0.000000, 0, 1080, 1081, 1085, 1080
-0.725025, -0.396012, 9.838689, 0.016799, 0.068417, 0.001374, 7.804736, 3.405437, -46.389942, 2.021936, 0.752388, 152.436081, 0.072089, 0.016530, 0.001245, 79944, 0.000000, 0.000000, 0.000000, 0.000000, -2.021936, -0.752388, -0.000000, 0, 1080, 1086, 1094, 1080
-0.727418, -0.361914, 9.825528, 0.017104, 0.064599, 0.001069, 8.199357, 3.361590, -45.527622, 0.765431, 0.223170, 152.373596, 0.072069, 0.016525, 0.001245, 79944, 0.000000, 0.000000, 0.000000, 0.000000, -0.765431, -0.223170, 0.000000, 0, 1080, 1082, 1085, 1080
-0.706481, -0.409771, 9.841081, 0.015882, 0.069180, 0.001985, 7.527039, 3.346974, -46.989185, 2.054029, 0.707845, 152.545502, 0.072051, 0.016519, 0.001244, 79948, 0.000000, 0.000000, 0.000000, 0.000000, -2.054029, -0.707845, -0.000000, 0, 1080, 1086, 1094, 1080
-0.719641, -0.378066, 9.851849, 0.017562, 0.068417, -0.004581, 7.366267, 4.033908, -46.638412, 0.815478, 0.124787, 152.402740, 0.072031, 0.016515, 0.001244, 79932, 0.000000, 0.000000, 0.000000, 0.000000, -0.815478, -0.124787, 0.000000, 0, 1080, 1083, 1084, 1080
-0.727418, -0.393619, 9.882358, 0.016952, 0.066126, -0.000916, 7.205495, 4.004677, -46.185326, 1.922511, 0.931530, 152.514679, 0.072010, 0.016512, 0.001244, 79944, 0.000000, 0.000000, 0.000000, 0.000000, -1.922511, -0.931530, -0.000000, 0, 1080, 1085, 1094, 1080
-0.714258, -0.416351, 9.826724, 0.017562, 0.067653, 0.005956, 7.541654, 3.960830, -45.849167, 0.758510, 0.209076, 152.388031, 0.071989, 0.016509, 0.001243, 79940, 0.000000, 0.000000, 0.000000, 0.000000, -0.758510, -0.209076, 0.000000, 0, 1080, 1082, 1084, 1080
-0.714258, -0.408574, 9.838091, 0.016188, 0.069639, 0.000000, 7.220111, 3.142356, -45.790707, 2.025513, 0.748629, 152.555374, 0.071970, 0.016504, 0.001243, 79940, 0.000000, 0.000000, 0.000000, 0.000000, -2.025513, -0.748629, -0.000000, 0, 1080, 1086, 1094, 1080
-0.721436, -0.382852, 9.861421, 0.011759, 0.063377, -0.001222, 7.585502, 3.230050, -46.492256, 0.766422, 0.210934, 152.462006, 0.071951, 0.016499, 0.001242, 79932, 0.000000, 0.000000, 0.000000, 0.000000, -0.766422, -0.210934, 0.000000, 0, 1080, 1082, 1084, 1080
-0.719641, -0.372084, 9.824929, 0.018173, 0.068570, 0.002596, 7.746273, 3.259281, -46.696873, 2.054513, 0.700985, 152.627792, 0.071932, 0.016494, 0.001242, 79944, 0.000000, 0.000000, 0.000000, 0.000000, -2.054513, -0.700985, -0.000000, 0, 1080, 1086, 1094, 1080
-0.722034, -0.366102, 9.837492, 0.019242, 0.070555, -0.003512, 7.760888, 3.346974, -46.579948, 0.776569, 0.215131, 152.529663, 0.071914, 0.016489, 0.001242, 79936, 0.000000, 0.000000, 0.000000, 0.000000, -0.776569, -0.215131, 0.000000, 0, 1080, 1082, 1085, 1080
-0.725623, -0.388235, 9.804591, 0.017410, 0.065668, 0.001527, 7.950891, 3.215434, -46.331482, 2.036875, 0.770894, 152.706680, 0.071895, 0.016484, 0.001241, 79948, 0.000000, 0.000000, 0.000000, 0.000000, -2.036875, -0.770894, -0.000000, 0, 1080, 1086, 1094, 1080
-0.725623, -0.373879, 9.862019, 0.019242, 0.067042, 0.001222, 7.088570, 3.376206, -46.156094, 0.801123, 0.181236, 152.587708, 0.071875, 0.016480, 0.001241, 79932, 0.000000, 0.000000, 0.000000, 0.000000, -0.801123, -0.181236, 0.000000, 0, 1080, 1083, 1085, 1080
-0.727418, -0.427717, 9.834501, 0.013744, 0.065210, 0.001374, 6.913184, 3.171587, -46.609177, 1.931373, 0.963624, 152.740097, 0.071854, 0.016477, 0.001241, 79944, 0.000000, 0.000000, 0.000000, 0.000000, -1.931373, -0.963624, -0.000000, 0, 1080, 1084, 1094, 1080
-0.702892, -0.369093, 9.862019, 0.016493, 0.071471, 0.000764, 7.673195, 3.639287, -46.433792, 0.955454, 0.003491, 152.641571, 0.071830, 0.016477, 0.001240, 79940, 0.000000, 0.000000, 0.000000, 0.000000, -0.955454, -0.003491, 0.000000, 0, 1080, 1084, 1084, 1080
-0.710070, -0.400200, 9.850055, 0.014966, 0.066584, -0.000611, 7.760888, 3.726980, -45.615318, 1.985451, 0.909201, 152.794037, 0.071807, 0.016476, 0.001240, 79940, 0.000000, 0.000000, 0.000000, 0.000000, -1.985451, -0.909201, -0.000000, 0, 1080, 1085, 1094, 1080
-0.718445, -0.372084, 9.832108, 0.016952, 0.066126, 0.006567, 7.527039, 3.770827, -45.863785, 0.862269, 0.126186, 152.671188, 0.071786, 0.016473, 0.001239, 79936, 0.000000, 0.000000, 0.000000, 0.000000, -0.862269, -0.126186, 0.000000, 0, 1080, 1083, 1085, 1080
-0.730409, -0.388235, 9.827921, 0.021533, 0.067195, 0.002138, 7.073955, 3.858521, -45.162235, 1.912358, 1.005787, 152.780746, 0.071764, 0.016472, 0.001239, 79952, 0.000000, 0.000000, 0.000000, 0.000000, -1.912358, -1.005787, -0.000000, 0, 1080, 1084, 1094, 1080
-0.733400, -0.386441, 9.860224, 0.018173, 0.077885, -0.001833, 7.380883, 3.449284, -45.688396, 0.806619, 0.198838, 152.673035, 0.071742, 0.016470, 0.001238, 79940, 0.000000, 0.000000, 0.000000, 0.000000, -0.806619, -0.198838, 0.000000, 0, 1080, 1083, 1085, 1080
-0.728615, -0.400200, 9.851252, 0.017410, 0.071777, -0.004123, 7.088570, 3.726980, -45.615318, 1.963777, 0.936237, 152.803238, 0.071721, 0.016467, 0.001238, 79940, 0.000000, 0.000000, 0.000000, 0.000000, -1.963777, -0.936237, -0.000000, 0, 1080, 1085, 1094, 1080
-0.721436, -0.396610, 9.823136, 0.015272, 0.061545, 0.002443, 7.132418, 3.288512, -45.586086, 0.799579, 0.212967, 152.695953, 0.071701, 0.016464, 0.001238, 79936, 0.000000, 0.000000, 0.000000, 0.000000, -0.799579, -0.212967, 0.000000, 0, 1080, 1082, 1085, 1080
-0.711865, -0.366102, 9.823136, 0.019853, 0.069639, -0.000458, 7.497808, 3.200819, -45.352234, 2.102533, 0.661994, 152.860245, 0.071683, 0.016458, 0.001237, 79940, 0.000000, 0.000000, 0.000000, 0.000000, -2.102533, -0.661994, -0.000000, 0, 1080, 1087, 1094, 1080
-0.735195, -0.384646, 9.826126, 0.017410, 0.067959, -0.000458, 7.439345, 2.762350, -45.425312, 0.740076, 0.550539, 152.793625, 0.071666, 0.016451, 0.001237, 79940, 0.000000, 0.000000, 0.000000, 0.000000, -0.740076, -0.550539, 0.000000, 0, 1080, 1080, 1086, 1080
-0.703490, -0.378066, 9.814162, 0.014966, 0.067501, -0.000764, 7.337036, 3.054662, -45.483776, 2.117498, 0.563661, 152.961761, 0.071649, 0.016444, 0.001236, 79940, 0.000000, 0.000000, 0.000000, 0.000000, -2.117498, -0.563661, -0.000000, 0, 1080, 1087, 1093, 1080
-0.734596, -0.375673, 9.844671, 0.015730, 0.064599, 0.001985, 7.278574, 3.273896, -45.951477, 0.758230, 0.401513, 152.843948, 0.071633, 0.016438, 0.001236, 79940, 0.000000, 0.000000, 0.000000, 0.000000, -0.758230, -0.401513, 0.000000, 0, 1080, 1081, 1085, 1080
-0.725623, -0.391825, 9.839287, 0.015730, 0.069944, -0.005040, 7.570886, 3.434668, -45.396084, 2.088136, 0.757701, 153.013092, 0.071615, 0.016431, 0.001236, 79936, 0.000000, 0.000000, 0.000000, 0.000000, -2.088136, -0.757701, -0.000000, 0, 1080, 1086, 1094, 1080
-0.705284, -0.392423, 9.841081, 0.016952, 0.065668, -0.002443, 7.585502, 3.595440, -45.761471, 0.858033, 0.152888, 152.894257, 0.071596, 0.016427, 0.001235, 79960, 0.000000, 0.000000, 0.000000, 0.000000, -0.858033, -0.152888, 0.000000, 0, 1080, 1083, 1085, 1080
-0.710070, -0.401994, 9.855439, 0.017104, 0.065973, 0.005651, 7.234727, 3.741596, -46.156094, 2.040387, 0.845523, 153.034180, 0.071576, 0.016424, 0.001235, 79924, 0.000000, 0.000000, 0.000000, 0.000000, -2.040387, -0.845523, -0.000000, 0, 1080, 1086, 1094, 1080
-0.726222, -0.385843, 9.826724, 0.017715, 0.072693, -0.000764, 8.126279, 4.106986, -45.893013, 0.818780, 0.228354, 152.895523, 0.071556, 0.016420, 0.001235, 79936, 0.000000, 0.000000, 0.000000, 0.000000, -0.818780, -0.228354, 0.000000, 0, 1080, 1083, 1085, 1080
-0.737588, -0.385244, 9.826126, 0.015272, 0.068570, 0.000000, 7.439345, 3.507746, -45.513008, 2.017114, 0.904874, 153.045837, 0.071537, 0.016416, 0.001234, 79944, 0.000000, 0.000000, 0.000000, 0.000000, -2.017114, -0.904874, -0.000000, 0, 1080, 1085, 1094, 1080
-0.731606, -0.378066, 9.832108, 0.018937, 0.063072, 0.001374, 8.447823, 3.873137, -45.542240, 0.822824, 0.237149, 152.929337, 0.071517, 0.016412, 0.001234, 79936, 0.000000, 0.000000, 0.000000, 0.000000, -0.822824, -0.237149, 0.000000, 0, 1080, 1082, 1085, 1080
-0.713659, -0.380459, 9.842876, 0.015730, 0.069791, -0.000916, 7.527039, 3.507746, -45.805321, 2.114075, 0.714566, 153.088837, 0.071499, 0.016407, 0.001233, 79944, 0.000000, 0.000000, 0.000000, 0.000000, -2.114075, -0.714566, -0.000000, 0, 1080, 1087, 1094, 1080
-0.732204, -0.389432, 9.849456, 0.017410, 0.071929, 0.038943, 7.380883, 3.756212, -46.214558, 0.819403, 0.267380, 152.954468, 0.071481, 0.016401, 0.001233, 79944, 0.000000, 0.000000, 0.000000, 0.000000, -0.819403, -0.267380, 0.000000, 0, 1080, 1082, 1085, 1080
-0.715454, -0.349352, 9.869196, 0.016646, 0.071471, -0.002902, 7.731658, 4.340836, -46.360714, 2.162552, 0.553990, 153.062881, 0.071464, 0.016395, 0.001233, 79948, 0.000000, 0.000000, 0.000000, 0.000000, -2.162552, -0.553990, -0.000000, 0, 1080, 1088, 1093, 1080
-0.722034, -0.361316, 9.841081, 0.015119, 0.069639, 0.001069, 7.687811, 3.785443, -46.989185, 0.837310, 0.211818, 152.925644, 0.071446, 0.016389, 0.001232, 79936, 0.000000, 0.000000, 0.000000, 0.000000, -0.837310, -0.211818, 0.000000, 0, 1080, 1083, 1085, 1080
-0.731606, -0.397807, 9.853643, 0.022602, 0.071166, -0.001527, 7.600117, 3.697749, -45.513008, 2.009589, 0.929039, 153.077545, 0.071426, 0.016386, 0.001232, 79940, 0.000000, 0.000000, 0.000000, 0.000000, -2.009589, -0.929039, -0.000000, 0, 1080, 1085, 1095, 1080
-0.727418, -0.384048, 9.847064, 0.018173, 0.067042, 0.001680, 7.351652, 3.770827, -45.688396, 0.842606, 0.211900, 152.947220, 0.071406, 0.016383, 0.001231, 79936, 0.000000, 0.000000, 0.000000, 0.000000, -0.842606, -0.211900, 0.000000, 0, 1080, 1083, 1085, 1080
-0.735195, -0.400798, 9.831510, 0.019700, 0.067195, -0.001833, 7.658579, 3.902368, -45.980705, 1.949013, 1.021091, 153.085281, 0.071385, 0.016381, 0.001231, 79940, 0.000000, 0.000000, 0.000000, 0.000000, -1.949013, -1.021091, -0.000000, 0, 1080, 1084, 1095, 1080
-0.716650, -0.396610, 9.826724, 0.016799, 0.062614, 0.002596, 7.351652, 3.230050, -45.849167, 0.861518, 0.187049, 152.990128, 0.071363, 0.016379, 0.001231, 79936, 0.000000, 0.000000, 0.000000, 0.000000, -0.861518, -0.187049, 0.000000, 0, 1080, 1083, 1085, 1080
-0.729811, -0.379861, 9.677772, 0.018173, 0.066126, 0.003665, 8.097048, 3.463899, -45.776089, 2.037441, 0.901974, 153.160934, 0.071343, 0.016376, 0.001230, 79940, 0.000000, 0.000000, 0.000000, 0.000000, -2.037441, -0.901974, -0.000000, 0, 1080, 1085, 1095, 1080
-0.719641, -0.395414, 9.817153, 0.014355, 0.065057, 0.006109, 7.746273, 3.551593, -45.893013, 0.836627, 0.241346, 153.047455, 0.071323, 0.016372, 0.001230, 79940, 0.000000, 0.000000, 0.000000, 0.000000, -0.836627, -0.241346, 0.000000, 0, 1080, 1083, 1085, 1080
-0.738186, -0.388235, 9.884151, 0.015730, 0.061392, 0.000305, 7.512424, 3.756212, -46.623795, 2.030338, 0.921566, 153.187561, 0.071304, 0.016368, 0.001229, 79944, 0.000000, 0.000000, 0.000000, 0.000000, -2.030338, -0.921566, -0.000000, 0, 1080, 1085, 1095, 1080
-0.721436, -0.391825, 9.808779, 0.019853, 0.065668, -0.003971, 6.957030, 4.457761, -45.805321, 0.882159, 0.175256, 153.034546, 0.071283, 0.016366, 0.001229, 79936, 0.000000, 0.000000, 0.000000, 0.000000, -0.882159, -0.175256, 0.000000, 0, 1080, 1083, 1085, 1080
-0.720838, -0.381655, 9.856036, 0.018326, 0.073304, -0.004887, 7.132418, 3.975446, -46.083015, 2.050598, 0.883935, 153.139191, 0.071263, 0.016362, 0.001229, 79944, 0.000000, 0.000000, 0.000000, 0.000000, -2.050598, -0.883935, -0.000000, 0, 1080, 1085, 1094, 1080
-0.707079, -0.373280, 9.856036, 0.021075, 0.067959, -0.000305, 7.147033, 3.683133, -45.849167, 0.928804, 0.097987, 153.014893, 0.071242, 0.016360, 0.001228, 79936, 0.000000, 0.000000, 0.000000, 0.000000, -0.928804, -0.097987, 0.000000, 0, 1080, 1084, 1085, 1080
-0.720240, -0.349950, 9.853046, 0.017410, 0.066432, -0.000153, 7.483192, 3.873137, -45.907627, 2.124652, 0.776429, 153.139099, 0.071223, 0.016356, 0.001228, 79944, 0.000000, 0.000000, 0.000000, 0.000000, -2.124652, -0.776429, -0.000000, 0, 1080, 1086, 1094, 1080
-0.716650, -0.376870, 9.845867, 0.017868, 0.066126, 0.001374, 7.892429, 4.019292, -45.498390, 0.896830, 0.170339, 152.999359, 0.071204, 0.016352, 0.001228, 79936, 0.000000, 0.000000, 0.000000, 0.000000, -0.896830, -0.170339, 0.000000, 0, 1080, 1083, 1085, 1080
-0.719641, -0.386441, 9.821341, 0.015424, 0.066432, -0.003360, 7.366267, 3.712365, -46.243790, 2.062315, 0.895167, 153.137268, 0.071183, 0.016349, 0.001227, 79948, 0.000000, 0.000000, 0.000000, 0.000000, -2.062315, -0.895167, -0.000000, 0, 1080, 1085, 1095, 1080
-0.719043, -0.394218, 9.839287, 0.018631, 0.065973, -0.001527, 7.337036, 4.150833, -46.740719, 0.883370, 0.196927, 152.995667, 0.071164, 0.016346, 0.001227, 79944, 0.000000, 0.000000, 0.000000, 0.000000, -0.883370, -0.196927, 0.000000, 0, 1080, 1083, 1085, 1080
-0.742971, -0.384048, 9.810574, 0.017410, 0.072998, -0.000764, 7.658579, 3.726980, -46.360714, 1.988517, 1.013596, 153.135071, 0.071143, 0.016344, 0.001226, 79936, 0.000000, 0.000000, 0.000000, 0.000000, -1.988517, -1.013596, -0.000000, 0, 1080, 1084, 1095, 1080
-0.720240, -0.394816, 9.845268, 0.014813, 0.063683, -0.000305, 7.220111, 3.054662, -45.615318, 0.881151, 0.205665, 153.042892, 0.071122, 0.016342, 0.001226, 79936, 0.000000, 0.000000, 0.000000, 0.000000, -0.881151, -0.205665, 0.000000, 0, 1080, 1083, 1085, 1080
-0.735195, -0.375075, 9.830314, 0.014813, 0.060934, 0.003054, 7.760888, 3.712365, -45.966091, 2.064861, 0.905025, 153.191666, 0.071102, 0.016339, 0.001226, 79944, 0.000000, 0.000000, 0.000000, 0.000000, -2.064861, -0.905025, -0.000000, 0, 1080, 1085, 1095, 1080
-0.716650, -0.376271, 9.821939, 0.015119, 0.062461, 0.002443, 7.337036, 3.800058, -45.337620, 0.906496, 0.173010, 153.059555, 0.071082, 0.016336, 0.001225, 79940, 0.000000, 0.000000, 0.000000, 0.000000, -0.906496, -0.173010, 0.000000, 0, 1080, 1083, 1085, 1080
-0.710070, -0.385843, 9.677772, 0.019548, 0.065515, -0.001222, 7.190880, 3.975446, -45.454548, 1.976002, 1.013196, 153.161972, 0.071060, 0.016334, 0.001225, 79952, 0.000000, 0.000000, 0.000000, 0.000000, -1.976002, -1.013196, -0.000000, 0, 1080, 1084, 1095, 1080
-0.717847, -0.374477, 9.848859, 0.014355, 0.072388, -0.000764, 7.541654, 2.864659, -45.834549, 1.015356, 0.038660, 153.109741, 0.071037, 0.016334, 0.001224, 79920, 0.000000, 0.000000, 0.000000, 0.000000, -1.015356, -0.038660, 0.000000, 0, 1080, 1084, 1085, 1080
-0.704686, -0.409771, 9.859028, 0.016035, 0.074831, -0.002291, 7.307805, 3.712365, -45.571472, 1.883595, 1.086896, 153.238052, 0.071013, 0.016335, 0.001224, 79952, 0.000000, 0.000000, 0.000000, 0.000000, -1.883595, -1.086896, -0.000000, 0, 1080, 1084, 1095, 1080
-0.728016, -0.410967, 9.836893, 0.016646, 0.067806, 0.000000, 8.111663, 2.893891, -45.162235, 0.905338, 0.131668, 153.221115, 0.070990, 0.016335, 0.001223, 79932, 0.000000, 0.000000, 0.000000, 0.000000, -0.905338, -0.131668, 0.000000, 0, 1080, 1083, 1085, 1080
-0.741177, -0.407378, 9.850653, 0.017868, 0.063683, -0.000916, 8.023970, 3.434668, -45.834549, 1.981704, 0.986136, 153.390884, 0.070968, 0.016334, 0.001223, 79944, 0.000000, 0.000000, 0.000000, 0.000000, -1.981704, -0.986136, -0.000000, 0, 1080, 1085, 1095, 1080
-0.722632, -0.395414, 9.841680, 0.013744, 0.063530, 0.002291, 8.550131, 3.536978, -46.024555, 0.859438, 0.201197, 153.309937, 0.070948, 0.016331, 0.001223, 79932, 0.000000, 0.000000, 0.000000, 0.000000, -0.859438, -0.201197, 0.000000, 0, 1080, 1083, 1085, 1080
-0.716650, -0.385843, 9.832108, 0.012370, 0.068417, 0.002291, 7.570886, 3.580824, -46.258404, 2.100436, 0.793597, 153.465454, 0.070929, 0.016327, 0.001222, 79944, 0.000000, 0.000000, 0.000000, 0.000000, -2.100436, -0.793597, -0.000000, 0, 1080, 1086, 1094, 1080
-0.725025, -0.384646, 9.842278, 0.018173, 0.063225, 0.000458, 8.155510, 3.493131, -45.703011, 0.832305, 0.276391, 153.359680, 0.070911, 0.016322, 0.001222, 79940, 0.000000, 0.000000, 0.000000, 0.000000, -0.832305, -0.276391, 0.000000, 0, 1080, 1082, 1085, 1080
-0.727418, -0.381655, 9.826126, 0.015882, 0.066279, 0.000000, 7.687811, 3.843905, -45.352234, 2.085297, 0.839497, 153.506165, 0.070893, 0.016317, 0.001221, 79940, 0.000000, 0.000000, 0.000000, 0.000000, -2.085297, -0.839497, -0.000000, 0, 1080, 1086, 1094, 1080
-0.714258, -0.392423, 9.834501, 0.016799, 0.069791, 0.001527, 7.322420, 4.326220, -45.878399, 0.898110, 0.156396, 153.355713, 0.070873, 0.016314, 0.001221, 79944, 0.000000, 0.000000, 0.000000, 0.000000, -0.898110, -0.156396, 0.000000, 0, 1080, 1083, 1085, 1080
-0.742373, -0.382253, 9.842278, 0.015424, 0.070097, 0.000153, 7.176264, 3.522362, -46.404560, 1.981606, 1.002134, 153.483398, 0.070852, 0.016312, 0.001221, 79952, 0.000000, 0.000000, 0.000000, 0.000000, -1.981606, -1.002134, -0.000000, 0, 1080, 1085, 1095, 1080
-0.736391, -0.383450, 9.825528, 0.020159, 0.072693, 0.002291, 7.424729, 3.434668, -45.659164, 0.825733, 0.268111, 153.367981, 0.070832, 0.016309, 0.001220, 79928, 0.000000, 0.000000, 0.000000, 0.000000, -0.825733, -0.268111, 0.000000, 0, 1080, 1082, 1085, 1080
-0.715454, -0.373879, 9.832108, 0.017104, 0.066126, 0.001680, 7.147033, 3.653902, -45.629932, 2.131846, 0.698838, 153.504623, 0.070815, 0.016304, 0.001220, 79944, 0.000000, 0.000000, 0.000000, 0.000000, -2.131846, -0.698838, -0.000000, 0, 1080, 1087, 1094, 1080
-0.736391, -0.379262, 9.830314, 0.016188, 0.064141, 0.001527, 7.351652, 3.420053, -45.542240, 0.810100, 0.338760, 153.376495, 0.070798, 0.016298, 0.001220, 79936, 0.000000, 0.000000, 0.000000, 0.000000, -0.810100, -0.338760, 0.000000, 0, 1080, 1082, 1085, 1080
-0.719043, -0.374477, 9.839885, 0.021075, 0.062766, 0.003054, 7.307805, 3.522362, -45.746857, 2.141089, 0.691725, 153.526703, 0.070781, 0.016292, 0.001219, 79944, 0.000000, 0.000000, 0.000000, 0.000000, -2.141089, -0.691725, -0.000000, 0, 1080, 1087, 1094, 1080
-0.706481, -0.394816, 9.896116, 0.019090, 0.067195, 0.002138, 7.497808, 3.653902, -46.433792, 0.884581, 0.144531, 153.400833, 0.070763, 0.016288, 0.001219, 79940, 0.000000, 0.000000, 0.000000, 0.000000, -0.884581, -0.144531, 0.000000, 0, 1080, 1083, 1085, 1080
-0.743570, -0.390628, 9.805787, 0.016799, 0.070250, -0.000916, 7.380883, 3.273896, -45.980705, 1.981588, 0.974900, 153.547943, 0.070742, 0.016286, 0.001218, 79932, 0.000000, 0.000000, 0.000000, 0.000000, -1.981588, -0.974900, -0.000000, 0, 1080, 1085, 1095, 1080
-0.745962, -0.354138, 9.814162, 0.018937, 0.070555, 0.000916, 7.147033, 3.800058, -46.156094, 0.843496, 0.214785, 153.408447, 0.070722, 0.016283, 0.001218, 79940, 0.000000, 0.000000, 0.000000, 0.000000, -0.843496, -0.214785, 0.000000, 0, 1080, 1083, 1085, 1080
-0.704088, -0.381057, 9.830314, 0.017715, 0.069180, -0.001222, 7.351652, 3.595440, -45.703011, 2.143579, 0.664052, 153.558685, 0.070705, 0.016278, 0.001218, 79940, 0.000000, 0.000000, 0.000000, 0.000000, -2.143579, -0.664052, -0.000000, 0, 1080, 1087, 1094, 1080
-0.722632, -0.386441, 9.840484, 0.016035, 0.070402, -0.002596, 7.103186, 3.770827, -45.308392, 0.856683, 0.193746, 153.416122, 0.070687, 0.016273, 0.001217, 79940, 0.000000, 0.000000, 0.000000, 0.000000, -0.856683, -0.193746, 0.000000, 0, 1080, 1083, 1085, 1080
-0.722632, -0.400200, 9.836893, 0.014508, 0.066890, -0.001985, 7.059340, 3.127740, -45.425312, 2.065899, 0.850113, 153.574020, 0.070669, 0.016269, 0.001217, 79940, 0.000000, 0.000000, 0.000000, 0.000000, -2.065899, -0.850113, -0.000000, 0, 1080, 1086, 1094, 1080
-0.739382, -0.392423, 9.844072, 0.020311, 0.070402, -0.002291, 8.184741, 3.756212, -45.790707, 0.792640, 0.346731, 153.448074, 0.070651, 0.016264, 0.001217, 79940, 0.000000, 0.000000, 0.000000, 0.000000, -0.792640, -0.346731, 0.000000, 0, 1080, 1082, 1085, 1080
-0.705883, -0.393021, 9.873982, 0.014050, 0.067195, 0.003054, 7.424729, 3.259281, -45.293774, 2.144818, 0.605081, 153.620392, 0.070635, 0.016258, 0.001216, 79940, 0.000000, 0.000000, 0.000000, 0.000000, -2.144818, -0.605081, -0.000000, 0, 1080, 1087, 1094, 1080
-0.710070, -0.398405, 9.826126, 0.014203, 0.071471, -0.000153, 7.629348, 3.741596, -45.849167, 0.836073, 0.198619, 153.488388, 0.070618, 0.016252, 0.001216, 79940, 0.000000, 0.000000, 0.000000, 0.000000, -0.836073, -0.198619, 0.000000, 0, 1080, 1083, 1085, 1080
-0.701097, -0.372682, 9.854840, 0.018326, 0.074526, -0.001069, 7.483192, 3.624671, -46.083015, 2.152124, 0.602956, 153.638275, 0.070601, 0.016247, 0.001216, 79948, 0.000000, 0.000000, 0.000000, 0.000000, -2.152124, -0.602956, -0.000000, 0, 1080, 1087, 1094, 1080
-0.732802, -0.391825, 9.835099, 0.015119, 0.072998, -0.001374, 7.658579, 3.463899, -46.448406, 0.800216, 0.379574, 153.515198, 0.070585, 0.016240, 0.001215, 79944, 0.000000, 0.000000, 0.000000, 0.000000, -0.800216, -0.379574, 0.000000, 0, 1080, 1082, 1086, 1080
-0.725623, -0.378066, 9.835099, 0.016646, 0.064904, 0.001833, 7.541654, 4.238527, -46.170712, 2.145007, 0.619239, 153.618637, 0.070568, 0.016234, 0.001215, 79936, 0.000000, 0.000000, 0.000000, 0.000000, -2.145007, -0.619239, -0.000000, 0, 1080, 1087, 1094, 1080
-0.723231, -0.378664, 9.864411, 0.018173, 0.066890, 0.003971, 7.234727, 4.267758, -46.156094, 0.874995, 0.108116, 153.460938, 0.070551, 0.016229, 0.001214, 79940, 0.000000, 0.000000, 0.000000, 0.000000, -0.874995, -0.108116, 0.000000, 0, 1080, 1083, 1085, 1080
-0.717847, -0.386441, 9.838091, 0.020464, 0.072846, 0.000611, 7.337036, 3.478515, -46.126862, 2.047041, 0.828783, 153.606262, 0.070531, 0.016226, 0.001214, 79944, 0.000000, 0.000000, 0.000000, 0.000000, -2.047041, -0.828783, -0.000000, 0, 1080, 1086, 1094, 1080
-0.714258, -0.367896, 9.827921, 0.018479, 0.072082, -0.003054, 7.541654, 3.054662, -45.147617, 0.884871, 0.106142, 153.523087, 0.070512, 0.016223, 0.001214, 79936, 0.000000, 0.000000, 0.000000, 0.000000, -0.884871, -0.106142, 0.000000, 0, 1080, 1083, 1085, 1080
-0.714856, -0.381057, 9.867402, 0.020769, 0.064752, 0.000458, 7.307805, 3.653902, -45.761471, 2.068423, 0.804634, 153.659225, 0.070492, 0.016220, 0.001213, 79944, 0.000000, 0.000000, 0.000000, 0.000000, -2.068423, -0.804634, -0.000000, 0, 1080, 1086, 1094, 1080
-0.724427, -0.383450, 9.820145, 0.013744, 0.064904, 0.001374, 3.843905, 3.990061, -45.323006, 1.101960, -0.166605, 153.538315, 0.070470, 0.016220, 0.001213, 79932, 0.000000, 0.000000, 0.000000, 0.000000, -1.101960, 0.166605, 0.000000, 0, 1080, 1086, 1084, 1080
-0.723829, -0.396610, 9.845867, 0.012065, 0.064446, 0.003054, 7.527039, 3.259281, -45.498390, 1.914584, 0.939826, 153.673737, 0.070445, 0.016222, 0.001213, 79940, 0.000000, 0.000000, 0.000000, 0.000000, -1.914584, -0.939826, -0.000000, 0, 1080, 1084, 1094, 1080
-0.728016, -0.373879, 9.851849, 0.015882, 0.062003, 0.001833, 6.971645, 3.697749, -45.454548, 0.805774, 0.135992, 153.544403, 0.070425, 0.016220, 0.001212, 79936, 0.000000, 0.000000, 0.000000, 0.000000, -0.805774, -0.135992, 0.000000, 0, 1080, 1083, 1084, 1080
-0.713659, -0.391825, 9.841081, 0.016035, 0.064599, 0.001833, 7.410114, 3.946214, -46.243790, 1.997911, 0.813663, 153.669601, 0.070406, 0.016216, 0.001212, 79944, 0.000000, 0.000000, 0.000000, 0.000000, -1.997911, -0.813663, -0.000000, 0, 1080, 1086, 1094, 1080
-0.731007, -0.372682, 9.836296, 0.018021, 0.073457, -0.001374, 7.717041, 7.424729, -46.009941, 0.924060, -0.020106, 153.431763, 0.070385, 0.016215, 0.001212, 79936, 0.000000, 0.000000, 0.000000, 0.000000, -0.924060, 0.020106, 0.000000, 0, 1080, 1084, 1084, 1080
-0.715454, -0.389432, 9.826126, 0.016799, 0.070402, -0.001374, 6.927799, 4.150833, -45.717628, 1.637784, 1.126046, 153.465714, 0.070359, 0.016218, 0.001211, 79952, 0.000000, 0.000000, 0.000000, 0.000000, -1.637784, -1.126046, -0.000000, 0, 1080, 1082, 1094, 1080
-0.731606, -0.379861, 9.852448, 0.016952, 0.068111, 0.000916, 6.854721, 7.234727, -45.746857, 0.735707, 0.105211, 153.256622, 0.070336, 0.016218, 0.001211, 79932, 0.000000, 0.000000, 0.000000, 0.000000, -0.735707, -0.105211, 0.000000, 0, 1080, 1083, 1084, 1080
-0.710070, -0.368495, 9.834501, 0.015272, 0.069028, -0.000458, 7.249342, 4.092371, -45.396084, 1.992756, 0.660153, 153.366394, 0.070318, 0.016214, 0.001211, 79944, 0.000000, 0.000000, 0.000000, 0.000000, -1.992756, -0.660153, -0.000000, 0, 1080, 1086, 1093, 1080
-0.723231, -0.363111, 9.861421, 0.016493, 0.073457, -0.004276, 7.234727, 3.887752, -45.279156, 0.750880, 0.087876, 153.218842, 0.070300, 0.016210, 0.001210, 79940, 0.000000, 0.000000, 0.000000, 0.000000, -0.750880, -0.087876, 0.000000, 0, 1080, 1083, 1084, 1080
-0.710070, -0.385843, 9.829117, 0.012675, 0.072082, -0.000153, 7.410114, 3.434668, -45.878399, 1.990346, 0.688517, 153.370651, 0.070282, 0.016205, 0.001210, 79952, 0.000000, 0.000000, 0.000000, 0.000000, -1.990346, -0.688517, -0.000000, 0, 1080, 1086, 1093, 1080
-0.714258, -0.398405, 9.845268, 0.016035, 0.066279, 0.001527, 7.556270, 4.033908, -45.513008, 0.737563, 0.136888, 153.228851, 0.070265, 0.016201, 0.001210, 79928, 0.000000, 0.000000, 0.000000, 0.000000, -0.737563, -0.136888, 0.000000, 0, 1080, 1083, 1084, 1080
-0.712463, -0.386441, 9.845268, 0.018021, 0.070708, -0.003207, 7.585502, 3.420053, -45.805321, 2.003062, 0.681269, 153.388077, 0.070247, 0.016196, 0.001209, 79944, 0.000000, 0.000000, 0.000000, 0.000000, -2.003062, -0.681269, -0.000000, 0, 1080, 1086, 1093, 1080
-0.714258, -0.385843, 9.834501, 0.015730, 0.061697, 0.002291, 8.067817, 4.019292, -45.717628, 0.744071, 0.145504, 153.252594, 0.070229, 0.016192, 0.001209, 79936, 0.000000, 0.000000, 0.000000, 0.000000, -0.744071, -0.145504, 0.000000, 0, 1080, 1083, 1084, 1080
-0.722034, -0.375075, 9.859627, 0.015424, 0.069639, 0.001222, 7.497808, 3.960830, -45.951477, 1.981877, 0.745556, 153.380676, 0.070211, 0.016188, 0.001208, 79944, 0.000000, 0.000000, 0.000000, 0.000000, -1.981877, -0.745556, -0.000000, 0, 1080, 1086, 1093, 1080
-0.734596, -0.388235, 9.817751, 0.016799, 0.070860, -0.001985, 7.833967, 3.726980, -45.439930, 0.689645, 0.296887, 153.251663, 0.070194, 0.016182, 0.001208, 79936, 0.000000, 0.000000, 0.000000, 0.000000, -0.689645, -0.296887, 0.000000, 0, 1080, 1082, 1085, 1080
-0.708275, -0.378066, 9.842278, 0.015119, 0.066737, -0.000458, 7.453961, 3.829290, -45.659164, 2.037561, 0.576368, 153.393158, 0.070178, 0.016176, 0.001208, 79936, 0.000000, 0.000000, 0.000000, 0.000000, -2.037561, -0.576368, -0.000000, 0, 1080, 1087, 1093, 1080
-0.716650, -0.385843, 9.821341, 0.013439, 0.065515, -0.001680, 7.439345, 4.019292, -45.776089, 0.740651, 0.138490, 153.245499, 0.070161, 0.016171, 0.001207, 79940, 0.000000, 0.000000, 0.000000, 0.000000, -0.740651, -0.138490, 0.000000, 0, 1080, 1083, 1084, 1080
-0.726222, -0.382253, 9.846465, 0.010843, 0.066584, -0.000458, 7.424729, 3.814674, -45.308392, 1.947376, 0.798459, 153.379227, 0.070143, 0.016167, 0.001207, 79948, 0.000000, 0.000000, 0.000000, 0.000000, -1.947376, -0.798459, -0.000000, 0, 1080, 1085, 1094, 1080
-0.719043, -0.363709, 9.839287, 0.017562, 0.069791, -0.001833, 7.629348, 3.580824, -44.811459, 0.793769, 0.065050, 153.263748, 0.070124, 0.016165, 0.001207, 79928, 0.000000, 0.000000, 0.000000, 0.000000, -0.793769, -0.065050, 0.000000, 0, 1080, 1083, 1084, 1080
-0.728016, -0.358923, 9.822537, 0.018173, 0.067042, 0.000458, 7.000877, 3.770827, -45.059925, 1.958454, 0.797695, 153.376297, 0.070104, 0.016162, 0.001206, 79948, 0.000000, 0.000000, 0.000000, 0.000000, -1.958454, -0.797695, -0.000000, 0, 1080, 1085, 1094, 1080
-0.706481, -0.391227, 9.784252, 0.014661, 0.065668, 0.001527, 7.103186, 3.800058, -45.732243, 0.774708, 0.108288, 153.244843, 0.070086, 0.016158, 0.001206, 79936, 0.000000, 0.000000, 0.000000, 0.000000, -0.774708, -0.108288, 0.000000, 0, 1080, 1083, 1084, 1080
-0.742373, -0.397209, 9.871590, 0.015272, 0.072846, -0.000764, 7.000877, 3.829290, -45.659164, 1.805717, 1.013256, 153.350082, 0.070064, 0.016158, 0.001205, 79944, 0.000000, 0.000000, 0.000000, 0.000000, -1.805717, -1.013256, -0.000000, 0, 1080, 1084, 1094, 1080
-0.742971, -0.387637, 9.830912, 0.017257, 0.072082, -0.000916, 7.293190, 3.142356, -46.053783, 0.728673, 0.170864, 153.263672, 0.070044, 0.016156, 0.001205, 79936, 0.000000, 0.000000, 0.000000, 0.000000, -0.728673, -0.170864, 0.000000, 0, 1080, 1082, 1084, 1080
-0.735195, -0.399003, 9.816555, 0.019395, 0.066890, 0.001680, 7.643963, 3.522362, -45.556854, 1.916135, 0.867822, 153.419296, 0.070025, 0.016153, 0.001205, 79952, 0.000000, 0.000000, 0.000000, 0.000000, -1.916135, -0.867822, -0.000000, 0, 1080, 1085, 1094, 1080
-0.725623, -0.401994, 9.833903, 0.018784, 0.067195, -0.000764, 7.410114, 3.990061, -45.629932, 0.721470, 0.198848, 153.280640, 0.070006, 0.016150, 0.001204, 79940, 0.000000, 0.000000, 0.000000, 0.000000, -0.721470, -0.198848, 0.000000, 0, 1080, 1082, 1084, 1080
-0.718445, -0.398405, 9.838689, 0.019700, 0.065363, -0.000305, 7.439345, 3.668518, -45.849167, 1.974579, 0.767277, 153.429596, 0.069989, 0.016145, 0.001204, 79936, 0.000000, 0.000000, 0.000000, 0.000000, -1.974579, -0.767277, -0.000000, 0, 1080, 1086, 1094, 1080
-0.729811, -0.388235, 9.830314, 0.015882, 0.066737, -0.001985, 7.804736, 3.113125, -45.980705, 0.689108, 0.302851, 153.353516, 0.069972, 0.016140, 0.001203, 79936, 0.000000, 0.000000, 0.000000, 0.000000, -0.689108, -0.302851, 0.000000, 0, 1080, 1081, 1085, 1080
-0.720240, -0.390628, 9.829117, 0.017562, 0.067501, 0.004581, 7.658579, 3.566209, -45.922245, 2.002536, 0.717916, 153.514420, 0.069955, 0.016135, 0.001203, 79944, 0.000000, 0.000000, 0.000000, 0.000000, -2.002536, -0.717916, -0.000000, 0, 1080, 1086, 1093, 1080
-0.711865, -0.365504, 9.808181, 0.014508, 0.067348, 0.003818, 7.556270, 3.785443, -46.857643, 0.791985, 0.079510, 153.383743, 0.069937, 0.016131, 0.001203, 79936, 0.000000, 0.000000, 0.000000, 0.000000, -0.791985, -0.079510, 0.000000, 0, 1080, 1083, 1084, 1080
-0.733998, -0.386441, 9.812368, 0.015424, 0.067653, -0.002596, 7.103186, 3.858521, -45.761471, 1.843553, 0.961522, 153.490067, 0.069916, 0.016130, 0.001202, 79948, 0.000000, 0.000000, 0.000000, 0.000000, -1.843553, -0.961522, -0.000000, 0, 1080, 1084, 1094, 1080
-0.727418, -0.397807, 9.845867, 0.019242, 0.057727, 0.004276, 6.357790, 3.346974, -45.717628, 0.725658, 0.169026, 153.373627, 0.069897, 0.016128, 0.001202, 79928, 0.000000, 0.000000, 0.000000, 0.000000, -0.725658, -0.169026, 0.000000, 0, 1080, 1082, 1084, 1080
-0.727418, -0.380459, 9.832705, 0.014203, 0.062156, 0.001069, 7.380883, 3.814674, -45.337620, 1.949757, 0.796549, 153.505966, 0.069879, 0.016124, 0.001202, 79944, 0.000000, 0.000000, 0.000000, 0.000000, -1.949757, -0.796549, -0.000000, 0, 1080, 1085, 1094, 1080
-0.729811, -0.380459, 9.844072, 0.019090, 0.066737, 0.002749, 7.468577, 3.756212, -45.819935, 0.727265, 0.181989, 153.372803, 0.069861, 0.016120, 0.001201, 79936, 0.000000, 0.000000, 0.000000, 0.000000, -0.727265, -0.181989, 0.000000, 0, 1080, 1082, 1084, 1080
-0.725025, -0.356531, 9.854242, 0.016952, 0.065210, 0.001222, 7.249342, 3.536978, -46.199944, 2.009483, 0.687385, 153.509613, 0.069844, 0.016115, 0.001201, 79944, 0.000000, 0.000000, 0.000000, 0.000000, -2.009483, -0.687385, -0.000000, 0, 1080, 1086, 1093, 1080
-0.725025, -0.372084, 9.838091, 0.018173, 0.071013, -0.001527, 7.833967, 3.317743, -46.039169, 0.714782, 0.250736, 153.413483, 0.069827, 0.016110, 0.001200, 79940, 0.000000, 0.000000, 0.000000, 0.000000, -0.714782, -0.250736, 0.000000, 0, 1080, 1082, 1084, 1080
-0.716052, -0.398405, 9.833304, 0.016799, 0.070708, -0.001222, 7.600117, 3.463899, -45.703011, 2.008538, 0.722287, 153.578171, 0.069810, 0.016105, 0.001200, 79940, 0.000000, 0.000000, 0.000000, 0.000000, -2.008538, -0.722287, -0.000000, 0, 1080, 1086, 1093, 1080
-0.728016, -0.371486, 9.809377, 0.016799, 0.072082, -0.001985, 7.395498, 3.536978, -46.024555, 0.736030, 0.219472, 153.449890, 0.069793, 0.016100, 0.001200, 79936, 0.000000, 0.000000, 0.000000, 0.000000, -0.736030, -0.219472, 0.000000, 0, 1080, 1082, 1084, 1080
-0.713659, -0.383450, 9.811171, 0.019700, 0.063072, 0.000611, 7.088570, 3.639287, -45.732243, 2.023378, 0.706292, 153.585785, 0.069776, 0.016095, 0.001199, 79944, 0.000000, 0.000000, 0.000000, 0.000000, -2.023378, -0.706292, -0.000000, 0, 1080, 1086, 1093, 1080
-0.731007, -0.400200, 9.839885, 0.014813, 0.065973, 0.000000, 7.147033, 3.668518, -45.819935, 0.728811, 0.257416, 153.449738, 0.069760, 0.016090, 0.001199, 79944, 0.000000, 0.000000, 0.000000, 0.000000, -0.728811, -0.257416, 0.000000, 0, 1080, 1082, 1085, 1080
-0.717249, -0.369691, 9.832705, 0.016799, 0.067195, -0.003512, 6.913184, 3.770827, -45.059925, 2.047909, 0.648339, 153.569931, 0.069744, 0.016085, 0.001199, 79948, 0.000000, 0.000000, 0.000000, 0.000000, -2.047909, -0.648339, -0.000000, 0, 1080, 1087, 1093, 1080
-0.716650, -0.373280, 9.841680, 0.020159, 0.071166, -0.000611, 6.898568, 3.332359, -46.039169, 0.772399, 0.150780, 153.445816, 0.069727, 0.016080, 0.001198, 79936, 0.000000, 0.000000, 0.000000, 0.000000, -0.772399, -0.150780, 0.000000, 0, 1080, 1083, 1084, 1080
-0.729811, -0.404387, 9.845867, 0.016188, 0.067042, 0.000611, 6.752411, 3.843905, -45.863785, 1.831680, 1.013799, 153.541763, 0.069706, 0.016079, 0.001198, 79944, 0.000000, 0.000000, 0.000000, 0.000000, -1.831680, -1.013799, -0.000000, 0, 1080, 1084, 1094, 1080
-0.728016, -0.392423, 9.814162, 0.016952, 0.065821, 0.000153, 6.971645, 3.580824, -46.009941, 0.743292, 0.182264, 153.423065, 0.069686, 0.016077, 0.001197, 79936, 0.000000, 0.000000, 0.000000, 0.000000, -0.743292, -0.182264, 0.000000, 0, 1080, 1082, 1084, 1080
-0.719641, -0.361316, 9.868000, 0.018937, 0.069180, -0.002749, 7.190880, 3.902368, -45.995323, 2.032075, 0.665482, 153.542007, 0.069670, 0.016072, 0.001197, 79940, 0.000000, 0.000000, 0.000000, 0.000000, -2.032075, -0.665482, -0.000000, 0, 1080, 1086, 1093, 1080
-0.711865, -0.404985, 9.843473, 0.018631, 0.064294, 0.001222, 6.635486, 3.390821, -45.644550, 0.757049, 0.162416, 153.416458, 0.069653, 0.016067, 0.001197, 79940, 0.000000, 0.000000, 0.000000, 0.000000, -0.757049, -0.162416, 0.000000, 0, 1080, 1083, 1084, 1080
-0.714258, -0.361316, 9.816555, 0.018631, 0.063988, 0.001527, 6.913184, 3.230050, -45.118385, 2.043297, 0.657521, 153.558090, 0.069636, 0.016062, 0.001196, 79936, 0.000000, 0.000000, 0.000000, 0.000000, -2.043297, -0.657521, -0.000000, 0, 1080, 1087, 1093, 1080
-0.722632, -0.407976, 9.853046, 0.016035, 0.062919, 0.001833, 7.293190, 4.092371, -45.498390, 0.760970, 0.176241, 153.409531, 0.069619, 0.016058, 0.001196, 79936, 0.000000, 0.000000, 0.000000, 0.000000, -0.760970, -0.176241, 0.000000, 0, 1080, 1082, 1084, 1080
-0.728016, -0.382253, 9.814761, 0.017868, 0.065363, 0.000611, 7.103186, 3.639287, -46.302250, 1.968029, 0.836554, 153.538757, 0.069601, 0.016054, 0.001196, 79940, 0.000000, 0.000000, 0.000000, 0.000000, -1.968029, -0.836554, -0.000000, 0, 1080, 1085, 1094, 1080
-0.726820, -0.389432, 9.887143, 0.019395, 0.067348, 0.003665, 7.147033, 3.069278, -45.761471, 0.760391, 0.191363, 153.440094, 0.069583, 0.016050, 0.001195, 79936, 0.000000, 0.000000, 0.000000, 0.000000, -0.760391, -0.191363, 0.000000, 0, 1080, 1082, 1084, 1080
-0.736989, -0.400798, 9.885349, 0.016799, 0.072388, -0.001374, 6.971645, 3.478515, -46.287636, 1.935245, 0.907207, 153.573547, 0.069565, 0.016048, 0.001195, 79948, 0.000000, 0.000000, 0.000000, 0.000000, -1.935245, -0.907207, -0.000000, 0, 1080, 1085, 1094, 1080
-0.715454, -0.374477, 9.811171, 0.019853, 0.067806, 0.000458, 7.307805, 3.478515, -45.995323, 0.830327, 0.098832, 153.461472, 0.069545, 0.016046, 0.001194, 79936, 0.000000, 0.000000, 0.000000, 0.000000, -0.830327, -0.098832, 0.000000, 0, 1080, 1083, 1084, 1080
-0.726222, -0.397209, 9.844072, 0.017868, 0.065973, 0.000305, 7.044724, 3.376206, -45.834549, 1.956994, 0.887750, 153.599365, 0.069526, 0.016044, 0.001194, 79944, 0.000000, 0.000000, 0.000000, 0.000000, -1.956994, -0.887750, -0.000000, 0, 1080, 1085, 1094, 1080
-0.720838, -0.358325, 9.834501, 0.018479, 0.067195, -0.002443, 7.453961, 4.092371, -46.112247, 0.854255, 0.077883, 153.457214, 0.069506, 0.016042, 0.001194, 79936, 0.000000, 0.000000, 0.000000, 0.000000, -0.854255, -0.077883, 0.000000, 0, 1080, 1083, 1084, 1080
-0.714856, -0.387637, 9.846465, 0.014355, 0.066126, 0.002138, 7.351652, 3.536978, -46.024555, 2.023429, 0.802147, 153.600632, 0.069487, 0.016039, 0.001193, 79952, 0.000000, 0.000000, 0.000000, 0.000000, -2.023429, -0.802147, -0.000000, 0, 1080, 1086, 1094, 1080
-0.725025, -0.379861, 9.865010, 0.016952, 0.064294, 0.000305, 7.030108, 3.156971, -46.331482, 0.795750, 0.194059, 153.489807, 0.069470, 0.016035, 0.001193, 79940, 0.000000, 0.000000, 0.000000, 0.000000, -0.795750, -0.194059, 0.000000, 0, 1080, 1083, 1085, 1080
-0.714258, -0.371486, 9.841680, 0.015577, 0.059101, 0.005651, 7.337036, 2.952353, -46.536098, 2.096260, 0.649416, 153.651093, 0.069453, 0.016030, 0.001193, 79940, 0.000000, 0.000000, 0.000000, 0.000000, -2.096260, -0.649416, -0.000000, 0, 1080, 1087, 1094, 1080
-0.712463, -0.377468, 9.836893, 0.014508, 0.065363, 0.001374, 7.263958, 2.996200, -46.112247, 0.796624, 0.216964, 153.553589, 0.069437, 0.016025, 0.001192, 79936, 0.000000, 0.000000, 0.000000, 0.000000, -0.796624, -0.216964, 0.000000, 0, 1080, 1082, 1085, 1080
-0.711267, -0.359522, 9.860823, 0.014203, 0.069333, -0.000153, 7.234727, 3.756212, -45.454548, 2.114954, 0.612291, 153.683655, 0.069421, 0.016019, 0.001192, 79944, 0.000000, 0.000000, 0.000000, 0.000000, -2.114954, -0.612291, -0.000000, 0, 1080, 1087, 1093, 1080
-0.721436, -0.366700, 9.862617, 0.014050, 0.071777, -0.001374, 6.913184, 3.726980, -45.191463, 0.836866, 0.120829, 153.538452, 0.069405, 0.016015, 0.001192, 79936, 0.000000, 0.000000, 0.000000, 0.000000, -0.836866, -0.120829, 0.000000, 0, 1080, 1083, 1084, 1080
-0.730409, -0.400798, 9.870394, 0.016646, 0.070860, 0.001985, 6.737796, 3.215434, -45.469162, 1.960418, 0.914565, 153.673782, 0.069385, 0.016013, 0.001191, 79948, 0.000000, 0.000000, 0.000000, 0.000000, -1.960418, -0.914565, -0.000000, 0, 1080, 1085, 1094, 1080
-0.707079, -0.390628, 9.842876, 0.015882, 0.065515, 0.000000, 7.176264, 4.019292, -45.045307, 0.845223, 0.119602, 153.537231, 0.069366, 0.016010, 0.001191, 79924, 0.000000, 0.000000, 0.000000, 0.000000, -0.845223, -0.119602, 0.000000, 0, 1080, 1083, 1084, 1080
-0.704088, -0.367298, 9.817153, 0.013744, 0.070860, 0.001222, 6.927799, 3.463899, -46.404560, 2.107402, 0.669168, 153.669647, 0.069349, 0.016006, 0.001191, 79948, 0.000000, 0.000000, 0.000000, 0.000000, -2.107402, -0.669168, -0.000000, 0, 1080, 1087, 1094, 1080
-0.719043, -0.386441, 9.824332, 0.020006, 0.070250, 0.000153, 7.088570, 3.566209, -45.819935, 0.819906, 0.201202, 153.536545, 0.069333, 0.016001, 0.001190, 79936, 0.000000, 0.000000, 0.000000, 0.000000, -0.819906, -0.201202, 0.000000, 0, 1080, 1083, 1085, 1080
-0.731007, -0.409771, 9.843473, 0.016341, 0.068875, -0.000764, 7.351652, 3.595440, -46.156094, 1.951873, 0.977716, 153.680923, 0.069314, 0.015999, 0.001190, 79940, 0.000000, 0.000000, 0.000000, 0.000000, -1.951873, -0.977716, -0.000000, 0, 1080, 1084, 1094, 1080
-0.722632, -0.407976, 9.832705, 0.022144, 0.073304, -0.006109, 7.059340, 3.142356, -45.264542, 0.789891, 0.251672, 153.575638, 0.069295, 0.015996, 0.001189, 79940, 0.000000, 0.000000, 0.000000, 0.000000, -0.789891, -0.251672, 0.000000, 0, 1080, 1082, 1085, 1080
-0.729811, -0.375075, 9.844072, 0.014813, 0.063225, 0.003054, 7.585502, 3.507746, -45.688396, 2.058567, 0.786633, 153.729736, 0.069278, 0.015992, 0.001189, 79940, 0.000000, 0.000000, 0.000000, 0.000000, -2.058567, -0.786633, -0.000000, 0, 1080, 1086, 1094, 1080
-0.717847, -0.377468, 9.844072, 0.017868, 0.067042, -0.001680, 7.366267, 3.434668, -45.907627, 0.835792, 0.169307, 153.609970, 0.069261, 0.015988, 0.001189, 79936, 0.000000, 0.000000, 0.000000, 0.000000, -0.835792, -0.169307, 0.000000, 0, 1080, 1083, 1085, 1080
-0.728615, -0.393619, 9.833304, 0.012523, 0.060628, 0.003665, 7.117802, 2.937737, -46.097633, 2.052829, 0.813515, 153.767990, 0.069243, 0.015984, 0.001188, 79948, 0.000000, 0.000000, 0.000000, 0.000000, -2.052829, -0.813515, -0.000000, 0, 1080, 1086, 1094, 1080
-0.732204, -0.372084, 9.833903, 0.020006, 0.065515, 0.004581, 7.132418, 3.566209, -46.419178, 0.818979, 0.218963, 153.635895, 0.069226, 0.015980, 0.001188, 79940, 0.000000, 0.000000, 0.000000, 0.000000, -0.818979, -0.218963, 0.000000, 0, 1080, 1083, 1085, 1080
-0.716052, -0.384646, 9.841081, 0.021533, 0.061239, -0.036194, 7.366267, 3.931599, -46.009941, 2.078755, 0.760758, 153.758209, 0.069209, 0.015976, 0.001188, 79952, 0.000000, 0.000000, 0.000000, 0.000000, -2.078755, -0.760758, -0.000000, 0, 1080, 1086, 1094, 1080
-0.708275, -0.399003, 9.851849, 0.016035, 0.071013, -0.001069, 7.117802, 3.463899, -45.425312, 0.842778, 0.168433, 153.634979, 0.069192, 0.015972, 0.001187, 79932, 0.000000, 0.000000, 0.000000, 0.000000, -0.842778, -0.168433, 0.000000, 0, 1080, 1083, 1085, 1080
-0.709472, -0.388235, 9.829117, 0.017562, 0.063835, 0.001985, 7.307805, 3.332359, -46.229172, 2.098963, 0.731102, 153.791214, 0.069175, 0.015968, 0.001187, 79944, 0.000000, 0.000000, 0.000000, 0.000000, -2.098963, -0.731102, -0.000000, 0, 1080, 1086, 1094, 1080
-0.736989, -0.373280, 9.862617, 0.022144, 0.065210, -0.003207, 6.767027, 2.747735, -46.375328, 0.783043, 0.352582, 153.686951, 0.069159, 0.015962, 0.001187, 79932, 0.000000, 0.000000, 0.000000, 0.000000, -0.783043, -0.352582, 0.000000, 0, 1080, 1082, 1085, 1080
-0.725623, -0.396610, 9.827322, 0.017104, 0.069486, -0.002902, 6.883952, 3.317743, -46.287636, 2.087842, 0.789499, 153.833771, 0.069143, 0.015957, 0.001186, 79940, 0.000000, 0.000000, 0.000000, 0.000000, -2.087842, -0.789499, -0.000000, 0, 1080, 1086, 1094, 1080
-0.716650, -0.372682, 9.845867, 0.016799, 0.070708, -0.002443, 7.541654, 2.893891, -45.439930, 0.867848, 0.168603, 153.757538, 0.069126, 0.015954, 0.001186, 79940, 0.000000, 0.000000, 0.000000, 0.000000, -0.867848, -0.168603, 0.000000, 0, 1080, 1083, 1085, 1080
-0.722632, -0.378066, 9.848859, 0.017562, 0.070555, -0.003971, 7.658579, 3.332359, -45.878399, 2.103469, 0.776135, 153.919037, 0.069109, 0.015950, 0.001186, 79940, 0.000000, 0.000000, 0.000000, 0.000000, -2.103469, -0.776135, -0.000000, 0, 1080, 1086, 1094, 1080
-0.705883, -0.394816, 9.684950, 0.015577, 0.071777, -0.004276, 7.424729, 3.405437, -45.191463, 0.837078, 0.251521, 153.798431, 0.069092, 0.015945, 0.001185, 79936, 0.000000, 0.000000, 0.000000, 0.000000, -0.837078, -0.251521, 0.000000, 0, 1080, 1082, 1085, 1080
-0.725623, -0.390628, 9.823733, 0.018173, 0.069791, -0.000153, 7.307805, 4.121602, -45.352234, 2.021983, 0.913119, 153.890213, 0.069074, 0.015942, 0.001185, 79944, 0.000000, 0.000000, 0.000000, 0.000000, -2.021983, -0.913119, -0.000000, 0, 1080, 1085, 1095, 1080
-0.722034, -0.387637, 9.844671, 0.018326, 0.059865, 0.000458, 6.913184, 3.683133, -44.957615, 0.854927, 0.194843, 153.757019, 0.069056, 0.015939, 0.001184, 79932, 0.000000, 0.000000, 0.000000, 0.000000, -0.854927, -0.194843, 0.000000, 0, 1080, 1083, 1085, 1080
-0.705284, -0.365504, 9.845268, 0.017410, 0.069333, 0.000000, 7.220111, 3.449284, -45.951477, 2.161461, 0.630192, 153.902069, 0.069040, 0.015934, 0.001184, 79948, 0.000000, 0.000000, 0.000000, 0.000000, -2.161461, -0.630192, -0.000000, 0, 1080, 1087, 1094, 1080
-0.716650, -0.383450, 9.842876, 0.017104, 0.069333, -0.002138, 7.424729, 3.800058, -45.264542, 0.868509, 0.177895, 153.760147, 0.069024, 0.015929, 0.001184, 79936, 0.000000, 0.000000, 0.000000, 0.000000, -0.868509, -0.177895, 0.000000, 0, 1080, 1083, 1085, 1080
-0.720838, -0.376870, 9.840484, 0.017562, 0.068264, 0.001680, 7.117802, 3.317743, -45.454548, 2.101335, 0.790220, 153.906357, 0.069007, 0.015925, 0.001183, 79940, 0.000000, 0.000000, 0.000000, 0.000000, -2.101335, -0.790220, -0.000000, 0, 1080, 1086, 1094, 1080
-0.720838, -0.391825, 9.842278, 0.020311, 0.069333, -0.000305, 7.073955, 3.171587, -45.571472, 0.841066, 0.251448, 153.790726, 0.068990, 0.015921, 0.001183, 79940, 0.000000, 0.000000, 0.000000, 0.000000, -0.841066, -0.251448, 0.000000, 0, 1080, 1083, 1085, 1080
-0.715454, -0.384646, 9.829117, 0.017104, 0.068722, 0.000611, 7.147033, 3.990061, -45.673779, 2.115948, 0.736692, 153.894989, 0.068974, 0.015916, 0.001183, 79948, 0.000000, 0.000000, 0.000000, 0.000000, -2.115948, -0.736692, -0.000000, 0, 1080, 1087, 1094, 1080
-0.728016, -0.373879, 9.841081, 0.017715, 0.074220, -0.000611, 7.512424, 3.624671, -45.805321, 0.840680, 0.237498, 153.760971, 0.068958, 0.015911, 0.001182, 79944, 0.000000, 0.000000, 0.000000, 0.000000, -0.840680, -0.237498, 0.000000, 0, 1080, 1083, 1085, 1080
-0.722632, -0.384646, 9.823733, 0.017868, 0.070860, -0.002138, 7.366267, 3.273896, -45.220695, 2.099364, 0.795289, 153.921356, 0.068941, 0.015907, 0.001182, 79936, 0.000000, 0.000000, 0.000000, 0.000000, -2.099364, -0.795289, -0.000000, 0, 1080, 1086, 1094, 1080
-0.713061, -0.393619, 9.833304, 0.016646, 0.068875, -0.002596, 7.000877, 3.127740, -45.805321, 0.856762, 0.215797, 153.808609, 0.068924, 0.015903, 0.001182, 79940, 0.000000, 0.000000, 0.000000, 0.000000, -0.856762, -0.215797, 0.000000, 0, 1080, 1083, 1085, 1080
-0.714856, -0.390628, 9.831510, 0.016188, 0.064752, -0.001680, 6.898568, 3.829290, -45.673779, 2.075109, 0.827195, 153.914200, 0.068907, 0.015899, 0.001181, 79940, 0.000000, 0.000000, 0.000000, 0.000000, -2.075109, -0.827195, -0.000000, 0, 1080, 1086, 1094, 1080
-0.723231, -0.382852, 9.824332, 0.017410, 0.069333, -0.000764, 7.366267, 2.893891, -46.433792, 0.830751, 0.254286, 153.823746, 0.068890, 0.015895, 0.001181, 79940, 0.000000, 0.000000, 0.000000, 0.000000, -0.830751, -0.254286, 0.000000, 0, 1080, 1082, 1085, 1080
-0.720838, -0.391825, 9.834501, 0.016493, 0.068875, 0.002138, 7.263958, 3.098509, -46.097633, 2.107331, 0.770861, 153.987289, 0.068874, 0.015891, 0.001181, 79940, 0.000000, 0.000000, 0.000000, 0.000000, -2.107331, -0.770861, -0.000000, 0, 1080, 1086, 1094, 1080
-0.714856, -0.396012, 9.834501, 0.015882, 0.064752, 0.001374, 7.220111, 3.259281, -46.039169, 0.846443, 0.232283, 153.871216, 0.068857, 0.015886, 0.001180, 79936, 0.000000, 0.000000, 0.000000, 0.000000, -0.846443, -0.232283, 0.000000, 0, 1080, 1083, 1085, 1080
-0.723231, -0.377468, 9.864411, 0.020159, 0.069639, -0.001833, 6.840106, 2.923122, -45.922245, 2.128821, 0.737316, 154.022125, 0.068841, 0.015882, 0.001180, 79940, 0.000000, 0.000000, 0.000000, 0.000000, -2.128821, -0.737316, -0.000000, 0, 1080, 1087, 1094, 1080
-0.705883, -0.377468, 9.841680, 0.015730, 0.066279, 0.000305, 6.372406, 3.215434, -45.819935, 0.910418, 0.108390, 153.900208, 0.068824, 0.015878, 0.001179, 79936, 0.000000, 0.000000, 0.000000, 0.000000, -0.910418, -0.108390, 0.000000, 0, 1080, 1084, 1085, 1080
-0.706481, -0.387637, 9.863215, 0.018631, 0.069486, 0.003360, 6.971645, 3.010816, -45.527622, 2.145761, 0.716586, 154.057175, 0.068807, 0.015874, 0.001179, 79944, 0.000000, 0.000000, 0.000000, 0.000000, -2.145761, -0.716586, -0.000000, 0, 1080, 1087, 1094, 1080
-0.717847, -0.385244, 9.846465, 0.016493, 0.068417, 0.001222, 7.263958, 3.200819, -45.206078, 0.859656, 0.242749, 153.941238, 0.068791, 0.015870, 0.001179, 79936, 0.000000, 0.000000, 0.000000, 0.000000, -0.859656, -0.242749, 0.000000, 0, 1080, 1083, 1085, 1080
-0.725025, -0.383450, 9.844072, 0.019242, 0.072540, -0.004123, 7.220111, 3.083894, -46.463020, 2.125093, 0.787404, 154.098755, 0.068775, 0.015865, 0.001179, 79944, 0.000000, 0.000000, 0.000000, 0.000000, -2.125093, -0.787404, -0.000000, 0, 1080, 1086, 1094, 1080
-0.740579, -0.407378, 9.830912, 0.018631, 0.070555, -0.002596, 7.410114, 3.712365, -45.893013, 0.823315, 0.358359, 153.959564, 0.068759, 0.015860, 0.001178, 79940, 0.000000, 0.000000, 0.000000, 0.000000, -0.823315, -0.358359, 0.000000, 0, 1080, 1082, 1086, 1080
-0.716052, -0.361914, 9.832705, 0.017104, 0.069639, 0.000000, 7.322420, 3.273896, -45.206078, 2.169547, 0.651560, 154.116013, 0.068744, 0.015855, 0.001178, 79940, 0.000000, 0.000000, 0.000000, 0.000000, -2.169547, -0.651560, -0.000000, 0, 1080, 1087, 1094, 1080
-0.720838, -0.407378, 9.827921, 0.014355, 0.069180, -0.002902, 7.205495, 3.230050, -45.805321, 0.839671, 0.315529, 153.996033, 0.068729, 0.015849, 0.001177, 79944, 0.000000, 0.000000, 0.000000, 0.000000, -0.839671, -0.315529, 0.000000, 0, 1080, 1082, 1085, 1080
-0.718445, -0.385244, 9.824929, 0.017868, 0.067195, -0.002596, 7.483192, 3.317743, -45.176849, 2.147877, 0.744098, 154.162979, 0.068713, 0.015844, 0.001177, 79948, 0.000000, 0.000000, 0.000000, 0.000000, -2.147877, -0.744098, -0.000000, 0, 1080, 1087, 1094, 1080
-0.710070, -0.363111, 9.841680, 0.013592, 0.074067, -0.002291, 7.395498, 3.770827, -46.521484, 0.934952, 0.107573, 154.026321, 0.068696, 0.015840, 0.001177, 79932, 0.000000, 0.000000, 0.000000, 0.000000, -0.934952, -0.107573, 0.000000, 0, 1080, 1084, 1085, 1080
-0.722632, -0.393619, 9.804591, 0.018631, 0.062614, 0.001069, 6.708565, 3.478515, -45.600700, 1.914507, 1.062500, 154.134720, 0.068675, 0.015840, 0.001176, 79944, 0.000000, 0.000000, 0.000000, 0.000000, -1.914507, -1.062500, -0.000000, 0, 1080, 1084, 1095, 1080
-0.729811, -0.374477, 9.837492, 0.017257, 0.067806, 0.001374, 7.249342, 2.981584, -46.185326, 0.916810, 0.124647, 154.053314, 0.068655, 0.015840, 0.001176, 79940, 0.000000, 0.000000, 0.000000, 0.000000, -0.916810, -0.124647, 0.000000, 0, 1080, 1084, 1085, 1080
-0.719043, -0.393021, 9.848859, 0.013744, 0.058032, 0.002749, 7.103186, 3.332359, -45.776089, 2.058366, 0.888436, 154.197220, 0.068637, 0.015838, 0.001176, 79944, 0.000000, 0.000000, 0.000000, 0.000000, -2.058366, -0.888436, -0.000000, 0, 1080, 1085, 1095, 1080
-0.714258, -0.399003, 9.838689, 0.016799, 0.062156, 0.002291, 7.015493, 2.937737, -45.834549, 0.858709, 0.224371, 154.096222, 0.068619, 0.015835, 0.001175, 79932, 0.000000, 0.000000, 0.000000, 0.000000, -0.858709, -0.224371, 0.000000, 0, 1080, 1083, 1085, 1080
-0.726820, -0.401994, 9.859028, 0.019242, 0.070708, -0.001374, 7.190880, 3.420053, -46.199944, 2.047783, 0.912492, 154.243622, 0.068602, 0.015832, 0.001175, 79936, 0.000000, 0.000000, 0.000000, 0.000000, -2.047783, -0.912492, -0.000000, 0, 1080, 1085, 1095, 1080
-0.736391, -0.387039, 9.848859, 0.018326, 0.062614, -0.000764, 7.453961, 3.463899, -46.828415, 0.824662, 0.294188, 154.120163, 0.068585, 0.015828, 0.001175, 79940, 0.000000, 0.000000, 0.000000, 0.000000, -0.824662, -0.294188, 0.000000, 0, 1080, 1082, 1085, 1080
-0.723829, -0.393619, 9.819546, 0.016493, 0.063683, 0.001680, 7.395498, 3.522362, -46.053783, 2.091353, 0.827959, 154.273148, 0.068569, 0.015824, 0.001174, 79940, 0.000000, 0.000000, 0.000000, 0.000000, -2.091353, -0.827959, -0.000000, 0, 1080, 1086, 1094, 1080
-0.733998, -0.408574, 9.854840, 0.016952, 0.067348, 0.001527, 7.190880, 3.113125, -45.980705, 0.800730, 0.364589, 154.158600, 0.068553, 0.015819, 0.001174, 79940, 0.000000, 0.000000, 0.000000, 0.000000, -0.800730, -0.364589, 0.000000, 0, 1080, 1082, 1085, 1080
-0.721436, -0.382253, 9.845268, 0.014050, 0.068570, -0.001069, 7.585502, 3.346974, -46.126862, 2.133096, 0.711788, 154.323090, 0.068538, 0.015813, 0.001174, 79936, 0.000000, 0.000000, 0.000000, 0.000000, -2.133096, -0.711788, -0.000000, 0, 1080, 1087, 1094, 1080
-0.720838, -0.398405, 9.840484, 0.013744, 0.060170, 0.005345, 7.702426, 3.200819, -45.834549, 0.821212, 0.313073, 154.216431, 0.068522, 0.015808, 0.001173, 79944, 0.000000, 0.000000, 0.000000, 0.000000, -0.821212, -0.313073, 0.000000, 0, 1080, 1082, 1085, 1080
-0.725025, -0.384048, 9.838689, 0.020922, 0.070555, -0.003207, 7.015493, 2.952353, -45.615318, 2.127023, 0.753799, 154.375290, 0.068507, 0.015803, 0.001173, 79944, 0.000000, 0.000000, 0.000000, 0.000000, -2.127023, -0.753799, -0.000000, 0, 1080, 1087, 1094, 1080
-0.720838, -0.383450, 9.844072, 0.015119, 0.059865, 0.002749, 6.986261, 3.156971, -45.439930, 0.857306, 0.236310, 154.256042, 0.068491, 0.015799, 0.001173, 79936, 0.000000, 0.000000, 0.000000, 0.000000, -0.857306, -0.236310, 0.000000, 0, 1080, 1083, 1085, 1080
-0.724427, -0.408574, 9.818949, 0.014050, 0.072540, -0.005040, 7.117802, 3.244665, -45.732243, 2.048011, 0.922292, 154.412079, 0.068474, 0.015796, 0.001172, 79948, 0.000000, 0.000000, 0.000000, 0.000000, -2.048011, -0.922292, -0.000000, 0, 1080, 1085, 1095, 1080
-0.721436, -0.379861, 9.842876, 0.018631, 0.068570, -0.003818, 6.708565, 2.820812, -46.316864, 0.884937, 0.196905, 154.310913, 0.068456, 0.015793, 0.001172, 79944, 0.000000, 0.000000, 0.000000, 0.000000, -0.884937, -0.196905, 0.000000, 0, 1080, 1083, 1085, 1080
-0.712463, -0.405583, 9.869196, 0.017562, 0.070555, -0.001527, 7.263958, 3.463899, -45.396084, 2.098277, 0.836920, 154.466843, 0.068439, 0.015790, 0.001172, 79936, 0.000000, 0.000000, 0.000000, 0.000000, -2.098277, -0.836920, -0.000000, 0, 1080, 1086, 1095, 1080
-0.717249, -0.397209, 9.835697, 0.015577, 0.061392, 0.003054, 7.322420, 3.493131, -46.083015, 0.865609, 0.236183, 154.341583, 0.068422, 0.015786, 0.001171, 79940, 0.000000, 0.000000, 0.000000, 0.000000, -0.865609, -0.236183, 0.000000, 0, 1080, 1083, 1085, 1080
-0.708275, -0.372682, 9.839885, 0.013592, 0.063835, -0.001680, 7.293190, 3.171587, -45.688396, 2.177692, 0.653767, 154.500839, 0.068407, 0.015781, 0.001171, 79940, 0.000000, 0.000000, 0.000000, 0.000000, -2.177692, -0.653767, -0.000000, 0, 1080, 1087, 1094, 1080
-0.708874, -0.392423, 9.854242, 0.014661, 0.062308, 0.002902, 7.848582, 3.054662, -45.995323, 0.865203, 0.257772, 154.408798, 0.068392, 0.015776, 0.001171, 79940, 0.000000, 0.000000, 0.000000, 0.000000, -0.865203, -0.257772, 0.000000, 0, 1080, 1083, 1085, 1080
-0.713061, -0.357129, 9.833304, 0.013439, 0.066279, 0.002749, 7.059340, 3.522362, -46.901493, 2.185954, 0.644603, 154.539398, 0.068377, 0.015771, 0.001170, 79940, 0.000000, 0.000000, 0.000000, 0.000000, -2.185954, -0.644603, -0.000000, 0, 1080, 1087, 1094, 1080
-0.728615, -0.407378, 9.808779, 0.017410, 0.069791, 0.000153, 6.854721, 3.390821, -46.784565, 0.856829, 0.306552, 154.408142, 0.068362, 0.015765, 0.001170, 79932, 0.000000, 0.000000, 0.000000, 0.000000, -0.856829, -0.306552, 0.000000, 0, 1080, 1082, 1085, 1080
-0.727418, -0.403191, 9.831510, 0.018937, 0.066737, 0.001374, 6.986261, 3.463899, -46.565334, 2.081457, 0.922617, 154.548096, 0.068345, 0.015762, 0.001170, 79944, 0.000000, 0.000000, 0.000000, 0.000000, -2.081457, -0.922617, -0.000000, 0, 1080, 1085, 1095, 1080
-0.729811, -0.381655, 9.837492, 0.020922, 0.114843, -0.002596, 7.424729, 3.054662, -46.389942, 0.874440, 0.277751, 154.444016, 0.068328, 0.015758, 0.001169, 79936, 0.000000, 0.000000, 0.000000, 0.000000, -0.874440, -0.277751, 0.000000, 0, 1080, 1083, 1085, 1080
-0.716052, -0.374477, 9.824332, 0.018784, 0.071471, -0.001527, 7.717041, 2.937737, -45.542240, 2.186782, 0.696600, 154.623001, 0.068313, 0.015753, 0.001169, 79944, 0.000000, 0.000000, 0.000000, 0.000000, -2.186782, -0.696600, -0.000000, 0, 1080, 1087, 1094, 1080
-0.731007, -0.387039, 9.856036, 0.016493, 0.065515, 0.005040, 7.015493, 3.215434, -46.302250, 0.871291, 0.309409, 154.497391, 0.068298, 0.015748, 0.001169, 79940, 0.000000, 0.000000, 0.000000, 0.000000, -0.871291, -0.309409, 0.000000, 0, 1080, 1082, 1086, 1080
-0.713659, -0.389432, 9.844671, 0.016952, 0.070097, 0.000916, 7.059340, 3.113125, -46.769951, 2.190719, 0.703073, 154.655502, 0.068283, 0.015743, 0.001168, 79956, 0.000000, 0.000000, 0.000000, 0.000000, -2.190719, -0.703073, -0.000000, 0, 1080, 1087, 1094, 1080
-0.723829, -0.386441, 9.843473, 0.015730, 0.065363, -0.000764, 7.249342, 3.113125, -45.951477, 0.878920, 0.303473, 154.538132, 0.068268, 0.015738, 0.001168, 79940, 0.000000, 0.000000, 0.000000, 0.000000, -0.878920, -0.303473, 0.000000, 0, 1080, 1082, 1086, 1080
-0.744766, -0.382253, 9.830912, 0.017868, 0.071166, -0.004429, 7.293190, 3.288512, -46.404560, 2.090288, 0.956137, 154.685577, 0.068251, 0.015734, 0.001168, 79936, 0.000000, 0.000000, 0.000000, 0.000000, -2.090288, -0.956137, -0.000000, 0, 1080, 1085, 1095, 1080
-0.712463, -0.371486, 9.809377, 0.015119, 0.068417, 0.004887, 7.556270, 3.215434, -46.229172, 0.965761, 0.172334, 154.581757, 0.068232, 0.015732, 0.001167, 79948, 0.000000, 0.000000, 0.000000, 0.000000, -0.965761, -0.172334, 0.000000, 0, 1080, 1084, 1085, 1080
