acc.x, acc.y, acc.z, gyro.x, gyro.y, gyro.z, magn.x, magn.y, magn.z, roll, pitch, yaw, roll_var, pitch_var, yaw_var, kf_dt, throttle, command_roll, command_pitch, command_yaw, pid_roll, pid_pitch, pid_yaw, motors_armed, m1_speed, m2_speed, m3_speed, m4_speed
-0.169890, 9.842876, -10.552470, -3.264769, 0.119539, -0.259621, 23.779596, -58.857059, 0.000000, -4.000000, 0.000000, 0.000635, 0.000703, 0.007962, 0.000000, -4647714815446351872, 0.000000, 0.000000, 0.000000, 0.000000, 0.000000, 0.000000, 34680832.000000, 4, 1100, 1100, 0, 0
-0.259621, -0.169890, 9.842876, 0.071013, 0.010232, 0.037721, -10.552470, 23.779596, -58.857059, -1.000000, -4.000000, 0.000000, 0.000635, 0.000703, 0.007962, 79956, 0.000000, 0.000000, 0.000000, 0.000000, 0.000000, 0.000000, 0.000000, 0, 1100, 1100, 1100, 1100
-0.244068, -0.183649, 9.875777, 0.065821, 0.010232, 0.036652, -10.727857, 24.013447, -58.696289, -1.000000, -4.000000, 0.000000, 0.000630, 0.000697, 0.007929, 79924, 0.000000, 0.000000, 0.000000, 0.000000, 0.000000, 0.000000, 0.000000, 0, 1100, 1100, 1100, 1100
-0.252443, -0.191426, 9.891331, 0.066279, 0.006109, 0.034514, -10.727857, 23.823442, -58.126278, -1.000000, -4.000000, 0.000000, 0.000624, 0.000691, 0.007896, 79936, 0.000000, 0.000000, 0.000000, 0.000000, 0.000000, 0.000000, 0.000000, 0, 1100, 1100, 1100, 1100
-0.258425, -0.165105, 9.860823, 0.064446, 0.009927, 0.035888, -10.377083, 23.633440, -59.163986, -1.000000, -4.000000, 0.000000, 0.000619, 0.000687, 0.007862, 79940, 0.000000, 0.000000, 0.000000, 0.000000, 0.000000, 0.000000, 0.000000, 0, 1100, 1100, 1100, 1100
-0.259621, -0.178265, 9.845867, 0.071471, 0.013439, 0.035430, -10.537854, 23.165741, -58.857059, -1.000000, -4.000000, 0.000000, 0.000614, 0.000682, 0.007829, 79928, 0.000000, 0.000000, 0.000000, 0.000000, 0.000000, 0.000000, 0.000000, 0, 1100, 1100, 1100, 1100
-0.270389, -0.183649, 9.881759, 0.060934, 0.011759, 0.038637, -10.260158, 24.115757, -58.550133, -1.000000, -4.000000, 0.000000, 0.000608, 0.000677, 0.007795, 79940, 0.000000, 0.000000, 0.000000, 0.000000, 0.000000, 0.000000, 0.000000, 0, 1100, 1100, 1100, 1100
-0.269193, -0.183649, 9.861421, 0.066584, 0.007330, 0.036346, -10.537854, 24.101139, -58.082432, -1.000000, -4.000000, 0.000000, 0.000603, 0.000671, 0.007762, 79936, 0.000000, 0.000000, 0.000000, 0.000000, 0.000000, 0.000000, 0.000000, 0, 1100, 1100, 1100, 1100
-0.243470, -0.185444, 9.871590, 0.067042, 0.006567, 0.036194, -11.122478, 23.297281, -58.067818, -1.000000, -4.000000, 0.000000, 0.000598, 0.000665, 0.007731, 79936, 0.000000, 0.000000, 0.000000, 0.000000, 0.000000, 0.000000, 0.000000, 0, 1100, 1100, 1100, 1100
-0.248854, -0.172881, 9.882358, 0.064904, 0.011148, 0.035888, -10.625548, 23.808828, -58.506287, -1.000000, -4.000000, 0.000000, 0.000593, 0.000660, 0.007698, 79936, 0.000000, 0.000000, 0.000000, 0.000000, 0.000000, 0.000000, 0.000000, 0, 1100, 1100, 1100, 1100
-0.239880, -0.185444, 9.846465, 0.064294, 0.008705, 0.032681, -10.947091, 23.633440, -58.433205, -1.000000, -4.000000, 0.000000, 0.000588, 0.000654, 0.007666, 79936, 0.000000, 0.000000, 0.000000, 0.000000, 0.000000, 0.000000, 0.000000, 0, 1100, 1100, 1100, 1100
-0.260219, -0.197408, 9.882358, 0.066584, 0.010079, 0.038332, -10.494008, 23.487286, -58.491673, -1.000000, -4.000000, 0.000000, 0.000583, 0.000650, 0.007632, 79940, 0.000000, 0.000000, 0.000000, 0.000000, 0.000000, 0.000000, 0.000000, 0, 1100, 1100, 1100, 1100
-0.260219, -0.184247, 9.862617, 0.067042, 0.005956, 0.034972, -10.567085, 23.414207, -58.301662, -1.000000, -4.000000, 0.000000, 0.000579, 0.000646, 0.007599, 79936, 0.000000, 0.000000, 0.000000, 0.000000, 0.000000, 0.000000, 0.000000, 0, 1100, 1100, 1100, 1100
-0.252443, -0.171087, 9.850653, 0.070250, 0.008094, 0.035583, -10.713242, 23.779596, -58.754749, -1.000000, -4.000000, 0.000000, 0.000574, 0.000641, 0.007567, 79936, 0.000000, 0.000000, 0.000000, 0.000000, 0.000000, 0.000000, 0.000000, 0, 1100, 1100, 1100, 1100
-0.250648, -0.186042, 9.862019, 0.065363, 0.011912, 0.035125, -10.771705, 23.852674, -58.067818, -1.000000, -4.000000, 0.000000, 0.000569, 0.000635, 0.007534, 79952, 0.000000, 0.000000, 0.000000, 0.000000, 0.000000, 0.000000, 0.000000, 0, 1100, 1100, 1100, 1100
-0.233300, -0.178265, 9.869795, 0.068264, 0.011759, 0.035430, -10.245543, 23.063431, -59.573227, -1.000000, -4.000000, 0.000000, 0.000565, 0.000632, 0.007501, 79924, 0.000000, 0.000000, 0.000000, 0.000000, 0.000000, 0.000000, 0.000000, 0, 1100, 1100, 1100, 1100
-0.261416, -0.183051, 9.848260, 0.067348, 0.009774, 0.035277, -10.464776, 23.063431, -58.491673, -1.000000, -4.000000, 0.000000, 0.000560, 0.000628, 0.007468, 79936, 0.000000, 0.000000, 0.000000, 0.000000, 0.000000, 0.000000, 0.000000, 0, 1100, 1100, 1100, 1100
-0.250050, -0.169292, 9.888339, 0.068875, 0.010537, 0.036041, -10.581701, 24.130371, -59.047062, -1.000000, -4.000000, 0.000000, 0.000556, 0.000623, 0.007436, 79940, 0.000000, 0.000000, 0.000000, 0.000000, 0.000000, 0.000000, 0.000000, 0, 1100, 1100, 1100, 1100
-0.239282, -0.174078, 9.896116, 0.066890, 0.009468, 0.033750, -10.596317, 23.852674, -58.813213, -1.000000, -4.000000, 0.000000, 0.000552, 0.000618, 0.007403, 79940, 0.000000, 0.000000, 0.000000, 0.000000, 0.000000, 0.000000, 0.000000, 0, 1100, 1100, 1100, 1100
-0.234497, -0.190828, 9.848260, 0.069180, 0.010232, 0.034819, -10.888629, 23.750364, -58.301662, -1.000000, -4.000000, 0.000000, 0.000547, 0.000613, 0.007372, 79936, 0.000000, 0.000000, 0.000000, 0.000000, 0.000000, 0.000000, 0.000000, 0, 1100, 1100, 1100, 1100
-0.254237, -0.171087, 9.865608, 0.075136, 0.008094, 0.033750, -10.596317, 23.911137, -58.564747, -1.000000, -3.000000, 0.000000, 0.000543, 0.000609, 0.007339, 79936, 0.000000, 0.000000, 0.000000, 0.000000, 0.000000, 0.000000, 0.000000, 0, 1100, 1100, 1100, 1100
-0.239880, -0.190828, 9.872787, 0.071471, 0.011606, 0.037415, -10.567085, 23.940369, -58.667057, -1.000000, -3.000000, 0.000000, 0.000539, 0.000604, 0.007306, 79932, 0.000000, 0.000000, 0.000000, 0.000000, 0.000000, 0.000000, 0.000000, 0, 1100, 1100, 1100, 1100
-0.266202, -0.193220, 9.834501, 0.067348, 0.010232, 0.037263, -10.684011, 23.165741, -58.579361, -1.000000, -3.000000, 0.000000, 0.000535, 0.000601, 0.007275, 79936, 0.000000, 0.000000, 0.000000, 0.000000, 0.000000, 0.000000, 0.000000, 0, 1100, 1100, 1100, 1100
-0.251845, -0.187238, 9.884151, 0.067501, 0.010690, 0.034667, -11.034785, 23.560364, -58.623207, -1.000000, -3.000000, 0.000000, 0.000531, 0.000596, 0.007244, 79936, 0.000000, 0.000000, 0.000000, 0.000000, 0.000000, 0.000000, 0.000000, 0, 1100, 1100, 1100, 1100
-0.260219, -0.187238, 9.860823, 0.059101, 0.009163, 0.037263, -10.479392, 23.911137, -58.520901, -1.000000, -3.000000, 0.000000, 0.000527, 0.000592, 0.007211, 79936, 0.000000, 0.000000, 0.000000, 0.000000, 0.000000, 0.000000, 0.000000, 0, 1100, 1100, 1100, 1100
-0.237488, -0.191426, 9.842876, 0.066584, 0.011759, 0.038637, -10.990938, 23.925753, -58.710903, -1.000000, -3.000000, 0.000000, 0.000523, 0.000588, 0.007180, 79940, 0.000000, 0.000000, 0.000000, 0.000000, 0.000000, 0.000000, 0.000000, 0, 1100, 1100, 1100, 1100
-0.257228, -0.182453, 9.844671, 0.068417, 0.008094, 0.036346, -11.268635, 24.086525, -58.842445, -1.000000, -3.000000, 0.000000, 0.000519, 0.000583, 0.007149, 79936, 0.000000, 0.000000, 0.000000, 0.000000, 0.000000, 0.000000, 0.000000, 0, 1100, 1100, 1100, 1100
-0.240479, -0.169292, 9.845867, 0.066737, 0.005803, 0.037721, -10.859398, 23.794212, -58.462437, -1.000000, -3.000000, 0.000000, 0.000515, 0.000579, 0.007118, 79948, 0.000000, 0.000000, 0.000000, 0.000000, 0.000000, 0.000000, 0.000000, 0, 1100, 1100, 1100, 1100
-0.260219, -0.172283, 9.881162, 0.069486, 0.008247, 0.036041, -10.844782, 23.881907, -58.257820, -1.000000, -3.000000, 0.000000, 0.000512, 0.000576, 0.007086, 79924, 0.000000, 0.000000, 0.000000, 0.000000, 0.000000, 0.000000, 0.000000, 0, 1100, 1100, 1100, 1100
-0.278764, -0.183649, 9.872787, 0.066279, 0.007941, 0.037721, -10.684011, 23.428822, -58.462437, -1.000000, -3.000000, 0.000000, 0.000508, 0.000573, 0.007055, 79940, 0.000000, 0.000000, 0.000000, 0.000000, 0.000000, 0.000000, 0.000000, 0, 1100, 1100, 1100, 1100
-0.265005, -0.185444, 9.870394, 0.063377, 0.010232, 0.036957, -10.684011, 24.758842, -58.550133, -1.000000, -3.000000, 0.000000, 0.000504, 0.000569, 0.007023, 79936, 0.000000, 0.000000, 0.000000, 0.000000, 0.000000, 0.000000, 0.000000, 0, 1100, 1100, 1100, 1100
-0.244068, -0.186640, 9.896714, 0.068875, 0.009010, 0.034208, -10.947091, 23.808828, -57.994740, -1.000000, -3.000000, 0.000000, 0.000500, 0.000565, 0.006992, 79936, 0.000000, 0.000000, 0.000000, 0.000000, 0.000000, 0.000000, 0.000000, 0, 1100, 1100, 1100, 1100
-0.257228, -0.169292, 9.836893, 0.070708, 0.007483, 0.033750, -11.239404, 24.261911, -57.600117, -1.000000, -3.000000, 0.000000, 0.000497, 0.000561, 0.006962, 79936, 0.000000, 0.000000, 0.000000, 0.000000, 0.000000, 0.000000, 0.000000, 0, 1100, 1100, 1100, 1100
-0.284746, -0.195613, 9.863215, 0.072846, 0.009468, 0.034361, -11.107863, 23.750364, -57.907043, -1.000000, -3.000000, 0.000000, 0.000494, 0.000558, 0.006932, 79944, 0.000000, 0.000000, 0.000000, 0.000000, 0.000000, 0.000000, 0.000000, 0, 1100, 1100, 1100, 1100
-0.292523, -0.171087, 9.856036, 0.069028, 0.007941, 0.034056, -11.093247, 23.838060, -58.550133, -1.000000, -3.000000, 0.000000, 0.000490, 0.000554, 0.006902, 79944, 0.000000, 0.000000, 0.000000, 0.000000, 0.000000, 0.000000, 0.000000, 0, 1100, 1100, 1100, 1100
-0.247657, -0.194417, 9.858430, 0.070708, 0.010079, 0.039706, -11.517100, 24.159603, -57.600117, -1.000000, -3.000000, 0.000000, 0.000487, 0.000551, 0.006872, 79928, 0.000000, 0.000000, 0.000000, 0.000000, 0.000000, 0.000000, 0.000000, 0, 1100, 1100, 1100, 1100
-0.255434, -0.177667, 9.868000, 0.072235, 0.008552, 0.035583, -11.560947, 23.764982, -57.658577, -1.000000, -3.000000, 0.000000, 0.000483, 0.000547, 0.006843, 79940, 0.000000, 0.000000, 0.000000, 0.000000, 0.000000, 0.000000, 0.000000, 0, 1100, 1100, 1100, 1100
-0.283549, -0.188435, 9.865608, 0.072235, 0.008399, 0.036041, -11.575562, 23.136511, -57.892429, 0.000000, -3.000000, 0.000000, 0.000480, 0.000543, 0.006814, 79928, 0.000000, 0.000000, 0.000000, 0.000000, 0.000000, 0.000000, 0.000000, 0, 1100, 1100, 1100, 1100
-0.247059, -0.150748, 9.870992, 0.075136, 0.006872, 0.033903, -11.385560, 23.881907, -57.673191, 0.000000, -3.000000, 0.000000, 0.000477, 0.000540, 0.006785, 79936, 0.000000, 0.000000, 0.000000, 0.000000, 0.000000, 0.000000, 0.000000, 0, 1100, 1100, 1100, 1100
-0.273380, -0.193819, 9.887143, 0.074526, 0.007941, 0.037110, -11.239404, 23.984215, -57.600117, 0.000000, -3.000000, 0.000000, 0.000474, 0.000537, 0.006755, 79940, 0.000000, 0.000000, 0.000000, 0.000000, 0.000000, 0.000000, 0.000000, 0, 1100, 1100, 1100, 1100
-0.238086, -0.178265, 9.859627, 0.066890, 0.008094, 0.036499, -11.122478, 23.370359, -57.921661, 0.000000, -3.000000, 0.000000, 0.000471, 0.000533, 0.006725, 79936, 0.000000, 0.000000, 0.000000, 0.000000, 0.000000, 0.000000, 0.000000, 0, 1100, 1100, 1100, 1100
-0.263809, -0.182453, 9.857233, 0.068264, 0.008094, 0.039401, -11.180941, 23.867290, -58.360130, 0.000000, -3.000000, 0.000000, 0.000468, 0.000530, 0.006695, 79936, 0.000000, 0.000000, 0.000000, 0.000000, 0.000000, 0.000000, 0.000000, 0, 1100, 1100, 1100, 1100
-0.266800, -0.185444, 9.868599, 0.071319, 0.009163, 0.031460, -10.727857, 24.115757, -58.067818, 0.000000, -2.000000, 0.000000, 0.000464, 0.000528, 0.006665, 79936, 0.000000, 0.000000, 0.000000, 0.000000, 0.000000, 0.000000, 0.000000, 0, 1100, 1100, 1100, 1100
-0.246461, -0.174676, 9.846465, 0.069486, 0.008705, 0.037874, -11.122478, 23.838060, -58.111660, 0.000000, -2.000000, 0.000000, 0.000461, 0.000524, 0.006635, 79940, 0.000000, 0.000000, 0.000000, 0.000000, 0.000000, 0.000000, 0.000000, 0, 1100, 1100, 1100, 1100
-0.242273, -0.192024, 9.855439, 0.069639, 0.007025, 0.036652, -10.961707, 23.721134, -58.374744, 0.000000, -2.000000, 0.000000, 0.000458, 0.000521, 0.006606, 79936, 0.000000, 0.000000, 0.000000, 0.000000, 0.000000, 0.000000, 0.000000, 0, 1100, 1100, 1100, 1100
-0.245863, -0.197408, 9.908678, 0.071777, 0.008399, 0.035430, -10.844782, 23.428822, -58.301662, 0.000000, -2.000000, 0.000000, 0.000455, 0.000518, 0.006576, 79936, 0.000000, 0.000000, 0.000000, 0.000000, 0.000000, 0.000000, 0.000000, 0, 1100, 1100, 1100, 1100
-0.272782, -0.181855, 9.891929, 0.061545, 0.005498, 0.036652, -10.976323, 24.393454, -57.556271, 0.000000, -2.000000, 0.000000, 0.000452, 0.000515, 0.006547, 79936, 0.000000, 0.000000, 0.000000, 0.000000, 0.000000, 0.000000, 0.000000, 0, 1100, 1100, 1100, 1100
-0.256032, -0.168694, 9.860823, 0.068264, 0.009010, 0.039554, -10.420930, 23.589594, -58.155514, 0.000000, -2.000000, 0.000000, 0.000450, 0.000513, 0.006517, 79936, 0.000000, 0.000000, 0.000000, 0.000000, 0.000000, 0.000000, 0.000000, 0, 1100, 1100, 1100, 1100
-0.248255, -0.202193, 9.853643, 0.069944, 0.013592, 0.034667, -10.903244, 23.311897, -57.746273, 0.000000, -2.000000, 0.000000, 0.000447, 0.000510, 0.006488, 79936, 0.000000, 0.000000, 0.000000, 0.000000, 0.000000, 0.000000, 0.000000, 0, 1100, 1100, 1100, 1100
-0.253639, -0.189033, 9.872787, 0.067348, 0.006261, 0.033903, -10.669394, 24.057293, -58.667057, 0.000000, -2.000000, 0.000000, 0.000444, 0.000507, 0.006459, 79944, 0.000000, 0.000000, 0.000000, 0.000000, 0.000000, 0.000000, 0.000000, 0, 1100, 1100, 1100, 1100
-0.250050, -0.178863, 9.862617, 0.071777, 0.011148, 0.036041, -10.844782, 23.560364, -58.360130, 0.000000, -2.000000, 0.000000, 0.000441, 0.000504, 0.006430, 79940, 0.000000, 0.000000, 0.000000, 0.000000, 0.000000, 0.000000, 0.000000, 0, 1100, 1100, 1100, 1100
-0.235095, -0.190229, 9.869795, 0.068417, 0.009621, 0.036346, -10.932476, 23.838060, -57.965504, 0.000000, -2.000000, 0.000000, 0.000438, 0.000501, 0.006402, 79932, 0.000000, 0.000000, 0.000000, 0.000000, 0.000000, 0.000000, 0.000000, 0, 1100, 1100, 1100, 1100
-0.241675, -0.172283, 9.851252, 0.067042, 0.008247, 0.036499, -11.283250, 23.531132, -58.097046, 0.000000, -2.000000, 0.000000, 0.000436, 0.000498, 0.006374, 79940, 0.000000, 0.000000, 0.000000, 0.000000, 0.000000, 0.000000, 0.000000, 0, 1100, 1100, 1100, 1100
-0.237488, -0.186042, 9.857831, 0.066584, 0.011912, 0.035888, -10.874014, 24.057293, -58.155514, 0.000000, -2.000000, 0.000000, 0.000433, 0.000495, 0.006345, 79928, 0.000000, 0.000000, 0.000000, 0.000000, 0.000000, 0.000000, 0.000000, 0, 1100, 1100, 1100, 1100
-0.262612, -0.190828, 9.871590, 0.077427, 0.009010, 0.032834, -10.610932, 23.560364, -57.541656, 0.000000, -2.000000, 0.000000, 0.000430, 0.000493, 0.006316, 79940, 0.000000, 0.000000, 0.000000, 0.000000, 0.000000, 0.000000, 0.000000, 0, 1100, 1100, 1100, 1100
-0.253041, -0.194417, 9.838689, 0.063683, 0.008858, 0.037874, -11.064016, 24.130371, -58.740131, 0.000000, -2.000000, 0.000000, 0.000428, 0.000490, 0.006288, 79936, 0.000000, 0.000000, 0.000000, 0.000000, 0.000000, 0.000000, 0.000000, 0, 1100, 1100, 1100, 1100
-0.262014, -0.185444, 9.850653, 0.073457, 0.008705, 0.036041, -11.458637, 24.554224, -59.602459, 0.000000, -2.000000, 0.000000, 0.000425, 0.000487, 0.006261, 79936, 0.000000, 0.000000, 0.000000, 0.000000, 0.000000, 0.000000, 0.000000, 0, 1100, 1100, 1100, 1100
-0.246461, -0.184846, 9.870394, 0.067806, 0.004581, 0.034056, -10.771705, 23.706518, -58.564747, 0.000000, -2.000000, 0.000000, 0.000422, 0.000484, 0.006233, 79936, 0.000000, 0.000000, 0.000000, 0.000000, 0.000000, 0.000000, 0.000000, 0, 1100, 1100, 1100, 1100
-0.244666, -0.180658, 9.882956, 0.066584, 0.006414, 0.037110, -11.137094, 23.721134, -58.301662, 0.000000, -2.000000, 0.000000, 0.000420, 0.000481, 0.006206, 79940, 0.000000, 0.000000, 0.000000, 0.000000, 0.000000, 0.000000, 0.000000, 0, 1100, 1100, 1100, 1100
-0.267398, -0.181256, 9.855439, 0.060323, 0.007941, 0.034514, -10.947091, 24.276527, -58.067818, 0.000000, -2.000000, 0.000000, 0.000417, 0.000479, 0.006178, 79936, 0.000000, 0.000000, 0.000000, 0.000000, 0.000000, 0.000000, 0.000000, 0, 1100, 1100, 1100, 1100
-0.238086, -0.173480, 9.878170, 0.074831, 0.008705, 0.037568, -11.020169, 23.691902, -57.921661, 0.000000, -2.000000, 0.000000, 0.000415, 0.000476, 0.006151, 79936, 0.000000, 0.000000, 0.000000, 0.000000, 0.000000, 0.000000, 0.000000, 0, 1100, 1100, 1100, 1100
-0.244068, -0.198604, 9.853643, 0.069180, 0.008247, 0.033598, -10.815551, 24.276527, -58.067818, 0.000000, -2.000000, 0.000000, 0.000413, 0.000474, 0.006123, 79936, 0.000000, 0.000000, 0.000000, 0.000000, 0.000000, 0.000000, 0.000000, 0, 1100, 1100, 1100, 1100
-0.262612, -0.185444, 9.844671, 0.066890, 0.007025, 0.034972, -10.800936, 24.422684, -58.389359, 0.000000, -2.000000, 0.000000, 0.000410, 0.000471, 0.006095, 79936, 0.000000, 0.000000, 0.000000, 0.000000, 0.000000, 0.000000, 0.000000, 0, 1100, 1100, 1100, 1100
-0.248854, -0.167498, 9.856036, 0.071166, 0.008094, 0.034972, -10.903244, 23.706518, -58.301662, 0.000000, -2.000000, 0.000000, 0.000408, 0.000469, 0.006068, 79936, 0.000000, 0.000000, 0.000000, 0.000000, 0.000000, 0.000000, 0.000000, 0, 1100, 1100, 1100, 1100
-0.282951, -0.191426, 9.863814, 0.064904, 0.009163, 0.037568, -10.567085, 23.545746, -58.433205, 0.000000, -1.000000, 0.000000, 0.000405, 0.000467, 0.006041, 79936, 0.000000, 0.000000, 0.000000, 0.000000, 0.000000, 0.000000, 0.000000, 0, 1100, 1100, 1100, 1100
-0.226720, -0.181855, 9.862019, 0.068722, 0.008858, 0.036805, -11.151711, 23.019585, -58.111660, 0.000000, -2.000000, 0.000000, 0.000403, 0.000465, 0.006015, 79944, 0.000000, 0.000000, 0.000000, 0.000000, 0.000000, 0.000000, 0.000000, 0, 1100, 1100, 1100, 1100
-0.260219, -0.183051, 9.841081, 0.070250, 0.006414, 0.034361, -11.137094, 23.779596, -57.921661, 0.000000, -1.000000, 0.000000, 0.000401, 0.000462, 0.005989, 79936, 0.000000, 0.000000, 0.000000, 0.000000, 0.000000, 0.000000, 0.000000, 0, 1100, 1100, 1100, 1100
-0.259023, -0.186042, 9.839885, 0.071471, 0.010843, 0.034361, -10.304005, 24.276527, -58.155514, 0.000000, -1.000000, 0.000000, 0.000399, 0.000461, 0.005961, 79936, 0.000000, 0.000000, 0.000000, 0.000000, 0.000000, 0.000000, 0.000000, 0, 1100, 1100, 1100, 1100
-0.245863, -0.176471, 9.860224, 0.071777, 0.009163, 0.035277, -10.727857, 23.794212, -57.950890, 0.000000, -1.000000, 0.000000, 0.000396, 0.000458, 0.005935, 79936, 0.000000, 0.000000, 0.000000, 0.000000, 0.000000, 0.000000, 0.000000, 0, 1100, 1100, 1100, 1100
-0.260818, -0.190828, 9.885946, 0.070555, 0.010232, 0.032987, -10.684011, 23.238819, -59.500145, 0.000000, -1.000000, 0.000000, 0.000394, 0.000456, 0.005908, 79932, 0.000000, 0.000000, 0.000000, 0.000000, 0.000000, 0.000000, 0.000000, 0, 1100, 1100, 1100, 1100
-0.278166, -0.178863, 9.856036, 0.068875, 0.006872, 0.035583, -10.596317, 24.495762, -57.775505, 0.000000, -1.000000, 0.000000, 0.000392, 0.000454, 0.005882, 79940, 0.000000, 0.000000, 0.000000, 0.000000, 0.000000, 0.000000, 0.000000, 0, 1100, 1100, 1100, 1100
-0.246461, -0.187837, 9.859627, 0.067501, 0.007483, 0.036957, -10.874014, 23.764982, -58.228588, 0.000000, -1.000000, 0.000000, 0.000390, 0.000452, 0.005856, 79936, 0.000000, 0.000000, 0.000000, 0.000000, 0.000000, 0.000000, 0.000000, 0, 1100, 1100, 1100, 1100
-0.263210, -0.180060, 9.848859, 0.070402, 0.010996, 0.035736, -11.020169, 23.852674, -57.512421, 0.000000, -1.000000, 0.000000, 0.000388, 0.000449, 0.005831, 79936, 0.000000, 0.000000, 0.000000, 0.000000, 0.000000, 0.000000, 0.000000, 0, 1100, 1100, 1100, 1100
-0.256630, -0.175872, 9.845268, 0.066279, 0.008705, 0.038026, -11.064016, 24.013447, -57.892429, 0.000000, -1.000000, 0.000000, 0.000385, 0.000447, 0.005805, 79936, 0.000000, 0.000000, 0.000000, 0.000000, 0.000000, 0.000000, 0.000000, 0, 1100, 1100, 1100, 1100
-0.269791, -0.175872, 9.862617, 0.069486, 0.011148, 0.032376, -10.713242, 24.086525, -57.541656, 0.000000, -1.000000, 0.000000, 0.000383, 0.000445, 0.005779, 79936, 0.000000, 0.000000, 0.000000, 0.000000, 0.000000, 0.000000, 0.000000, 0, 1100, 1100, 1100, 1100
-0.264407, -0.178863, 9.839287, 0.072388, 0.007789, 0.035736, -11.327098, 23.721134, -58.447819, 0.000000, -1.000000, 0.000000, 0.000381, 0.000442, 0.005755, 79940, 0.000000, 0.000000, 0.000000, 0.000000, 0.000000, 0.000000, 0.000000, 0, 1100, 1100, 1100, 1100
-0.265603, -0.181855, 9.833304, 0.074220, 0.011912, 0.037263, -11.400175, 23.691902, -57.293190, 0.000000, -1.000000, 0.000000, 0.000379, 0.000440, 0.005731, 79936, 0.000000, 0.000000, 0.000000, 0.000000, 0.000000, 0.000000, 0.000000, 0, 1100, 1100, 1100, 1100
-0.251845, -0.172881, 9.867402, 0.067195, 0.010996, 0.034361, -11.444022, 23.472668, -57.892429, 0.000000, -1.000000, 0.000000, 0.000377, 0.000438, 0.005706, 79936, 0.000000, 0.000000, 0.000000, 0.000000, 0.000000, 0.000000, 0.000000, 0, 1100, 1100, 1100, 1100
-0.243470, -0.176471, 9.847064, 0.071624, 0.010385, 0.035430, -10.654779, 23.808828, -58.316284, 0.000000, -1.000000, 0.000000, 0.000375, 0.000436, 0.005681, 79936, 0.000000, 0.000000, 0.000000, 0.000000, 0.000000, 0.000000, 0.000000, 0, 1100, 1100, 1100, 1100
-0.227318, -0.180658, 9.866804, 0.070250, 0.011912, 0.035888, -11.239404, 23.414207, -57.717045, 0.000000, -1.000000, 0.000000, 0.000373, 0.000433, 0.005657, 79940, 0.000000, 0.000000, 0.000000, 0.000000, 0.000000, 0.000000, 0.000000, 0, 1100, 1100, 1100, 1100
-0.230309, -0.175872, 9.868000, 0.064752, 0.007483, 0.034972, -11.297866, 23.706518, -57.980122, 0.000000, -1.000000, 0.000000, 0.000371, 0.000431, 0.005632, 79936, 0.000000, 0.000000, 0.000000, 0.000000, 0.000000, 0.000000, 0.000000, 0, 1100, 1100, 1100, 1100
-0.260818, -0.183649, 9.864411, 0.067501, 0.006567, 0.034667, -11.093247, 23.735750, -57.497807, 0.000000, -1.000000, 0.000000, 0.000369, 0.000429, 0.005608, 79940, 0.000000, 0.000000, 0.000000, 0.000000, 0.000000, 0.000000, 0.000000, 0, 1100, 1100, 1100, 1100
-0.253041, -0.181855, 9.869196, 0.064294, 0.009468, 0.039095, -11.049401, 23.384975, -58.740131, 0.000000, -1.000000, 0.000000, 0.000367, 0.000427, 0.005584, 79936, 0.000000, 0.000000, 0.000000, 0.000000, 0.000000, 0.000000, 0.000000, 0, 1100, 1100, 1100, 1100
-0.253041, -0.181855, 9.844072, 0.064141, 0.009316, 0.037263, -10.990938, 23.545746, -58.257820, 0.000000, -1.000000, 0.000000, 0.000365, 0.000425, 0.005560, 79940, 0.000000, 0.000000, 0.000000, 0.000000, 0.000000, 0.000000, 0.000000, 0, 1100, 1100, 1100, 1100
-0.251246, -0.171087, 9.859627, 0.069333, 0.007636, 0.037110, -11.166326, 23.779596, -58.623207, 0.000000, -1.000000, 0.000000, 0.000363, 0.000423, 0.005536, 79928, 0.000000, 0.000000, 0.000000, 0.000000, 0.000000, 0.000000, 0.000000, 0, 1100, 1100, 1100, 1100
-0.253041, -0.181855, 9.851849, 0.064141, 0.003818, 0.038026, -11.239404, 23.370359, -57.614731, 0.000000, -1.000000, 0.000000, 0.000362, 0.000421, 0.005512, 79940, 0.000000, 0.000000, 0.000000, 0.000000, 0.000000, 0.000000, 0.000000, 0, 1100, 1100, 1100, 1100
-0.250050, -0.181855, 9.848859, 0.067195, 0.008705, 0.036805, -11.254020, 23.516516, -58.111660, 0.000000, -1.000000, 0.000000, 0.000360, 0.000419, 0.005489, 79936, 0.000000, 0.000000, 0.000000, 0.000000, 0.000000, 0.000000, 0.000000, 0, 1100, 1100, 1100, 1100
-0.241077, -0.180060, 9.845867, 0.066584, 0.006872, 0.034361, -10.786320, 24.232681, -59.163986, 0.000000, -1.000000, 0.000000, 0.000358, 0.000417, 0.005465, 79936, 0.000000, 0.000000, 0.000000, 0.000000, 0.000000, 0.000000, 0.000000, 0, 1100, 1100, 1100, 1100
-0.260818, -0.203390, 9.848260, 0.065210, 0.004276, 0.036346, -10.610932, 24.817305, -57.731659, 0.000000, -1.000000, 0.000000, 0.000356, 0.000416, 0.005440, 79936, 0.000000, 0.000000, 0.000000, 0.000000, 0.000000, 0.000000, 0.000000, 0, 1100, 1100, 1100, 1100
-0.257827, -0.193819, 9.850653, 0.069333, 0.008705, 0.037263, -11.078632, 23.706518, -57.877815, 0.000000, -1.000000, 0.000000, 0.000355, 0.000414, 0.005417, 79936, 0.000000, 0.000000, 0.000000, 0.000000, 0.000000, 0.000000, 0.000000, 0, 1100, 1100, 1100, 1100
-0.256630, -0.174078, 9.820145, 0.069333, 0.007789, 0.037568, -11.268635, 23.823442, -57.673191, 0.000000, -1.000000, 0.000000, 0.000353, 0.000412, 0.005394, 79936, 0.000000, 0.000000, 0.000000, 0.000000, 0.000000, 0.000000, 0.000000, 0, 1100, 1100, 1100, 1100
-0.266800, -0.169292, 9.868599, 0.068722, 0.008858, 0.038332, -11.283250, 24.408068, -58.491673, 0.000000, -1.000000, 0.000000, 0.000351, 0.000410, 0.005371, 79940, 0.000000, 0.000000, 0.000000, 0.000000, 0.000000, 0.000000, 0.000000, 0, 1100, 1100, 1100, 1100
-0.260219, -0.177667, 9.836296, 0.064752, 0.007483, 0.036041, -10.800936, 24.013447, -57.936275, 0.000000, -1.000000, 0.000000, 0.000349, 0.000408, 0.005348, 79936, 0.000000, 0.000000, 0.000000, 0.000000, 0.000000, 0.000000, 0.000000, 0, 1100, 1100, 1100, 1100
-0.257827, -0.168096, 9.853643, 0.071319, 0.009621, 0.036194, -10.684011, 24.729610, -57.892429, 0.000000, -1.000000, 0.000000, 0.000348, 0.000406, 0.005324, 79936, 0.000000, 0.000000, 0.000000, 0.000000, 0.000000, 0.000000, 0.000000, 0, 1100, 1100, 1100, 1100
-0.247059, -0.189631, 9.857233, 0.065363, 0.010232, 0.033750, -10.537854, 23.458054, -57.600117, 0.000000, 0.000000, 0.000000, 0.000346, 0.000404, 0.005302, 79936, 0.000000, 0.000000, 0.000000, 0.000000, 0.000000, 0.000000, 0.000000, 0, 1100, 1100, 1100, 1100
-0.273380, -0.187837, 9.850653, 0.073457, 0.009774, 0.034056, -10.917860, 24.378836, -57.965504, 0.000000, 0.000000, 0.000000, 0.000344, 0.000403, 0.005279, 79936, 0.000000, 0.000000, 0.000000, 0.000000, 0.000000, 0.000000, 0.000000, 0, 1100, 1100, 1100, 1100
-0.233898, -0.169292, 9.874581, 0.069486, 0.010996, 0.036041, -10.508623, 23.896521, -57.643963, 0.000000, 0.000000, 0.000000, 0.000343, 0.000401, 0.005256, 79944, 0.000000, 0.000000, 0.000000, 0.000000, 0.000000, 0.000000, 0.000000, 0, 1100, 1100, 1100, 1100
-0.250648, -0.183051, 9.854242, 0.066584, 0.009468, 0.034819, -10.640163, 23.808828, -58.579361, 0.000000, 0.000000, 0.000000, 0.000341, 0.000399, 0.005234, 79936, 0.000000, 0.000000, 0.000000, 0.000000, 0.000000, 0.000000, 0.000000, 0, 1100, 1100, 1100, 1100
-0.263809, -0.183649, 9.880563, 0.072082, 0.006567, 0.036957, -10.596317, 23.648056, -58.403976, 0.000000, 0.000000, 0.000000, 0.000339, 0.000397, 0.005211, 79936, 0.000000, 0.000000, 0.000000, 0.000000, 0.000000, 0.000000, 0.000000, 0, 1100, 1100, 1100, 1100
-0.291326, -0.173480, 9.854242, 0.063225, 0.006261, 0.036041, -10.990938, 23.735750, -58.023972, 0.000000, 0.000000, 0.000000, 0.000338, 0.000395, 0.005190, 79940, 0.000000, 0.000000, 0.000000, 0.000000, 0.000000, 0.000000, 0.000000, 0, 1100, 1100, 1100, 1100
-0.235095, -0.187238, 9.850055, 0.071624, 0.006720, 0.038179, -10.420930, 23.399591, -59.485531, 0.000000, 0.000000, 0.000000, 0.000336, 0.000393, 0.005168, 79928, 0.000000, 0.000000, 0.000000, 0.000000, 0.000000, 0.000000, 0.000000, 1, 1100, 1100, 1100, 1100
-0.255434, -0.170489, 9.838689, 0.069028, 0.007483, 0.033292, -10.757089, 23.063431, -58.330898, 0.000000, 0.000000, 0.000000, 0.000334, 0.000391, 0.005146, 80960, 0.000000, 0.000000, 0.000000, 0.000000, 0.000000, 0.000000, 0.000000, 1, 1100, 1100, 1100, 1100
-0.240479, -0.061017, 10.128221, 0.076816, 0.009927, 0.030391, -11.297866, 23.677288, -60.640163, 0.000000, 0.000000, 0.000000, 0.000336, 0.000390, 0.005125, 79936, 0.000000, 0.000000, 0.000000, 0.000000, 0.000000, 0.000000, 0.000000, 1, 1100, 1100, 1100, 1100
-1.052244, -0.387637, 7.509276, 0.060323, -0.010537, 0.016493, -11.020169, 24.115757, -64.352531, 0.000000, 0.000000, 0.000000, 0.000339, 0.000440, 0.005101, 79940, 0.000000, 0.000000, 0.000000, 0.000000, 0.000000, 0.000000, 0.000000, 1, 1100, 1100, 1100, 1100
-0.406780, -0.262014, 11.132010, 0.063072, -0.001527, 0.045204, -11.780182, 23.911137, -65.010231, 0.000000, 0.000000, 0.000000, 0.000338, 0.000439, 0.005082, 79936, 0.000000, 0.000000, 0.000000, 0.000000, 0.000000, 0.000000, 0.000000, 1, 1100, 1100, 1100, 1100
-0.494118, 0.421735, 9.051450, 0.113010, -0.012675, 0.059407, -11.619410, 23.384975, -63.285591, 0.000000, 0.000000, 0.000000, 0.000376, 0.000438, 0.005059, 79936, 0.000000, 0.000000, 0.000000, 0.000000, 0.000000, 0.000000, 0.000000, 1, 1100, 1100, 1100, 1100
2.182853, 2.826522, 7.905288, -0.011912, 0.128129, 0.068111, -10.684011, 23.516516, -61.911720, 1.000000, 0.000000, 0.000000, 0.000412, 0.000464, 0.005036, 79936, 0.000000, 0.000000, 0.000000, 0.000000, 0.000000, 0.000000, 0.000000, 1, 1100, 1100, 1100, 1100
10.618150, -4.698307, 5.099105, 0.346361, 0.163865, 0.195019, -10.464776, 23.414207, -62.584042, 1.000000, -1.000000, 0.000000, 0.000420, 0.000518, 0.005012, 79936, 0.000000, 0.000000, 0.000000, 0.000000, 0.000000, 0.000000, 0.000000, 1, 1100, 1100, 1100, 1100
5.997012, 16.139589, 16.073786, -1.075581, 0.781297, -0.313221, -11.327098, 24.437300, -62.394035, 1.000000, -1.000000, 0.000000, 0.000465, 0.000521, 0.004989, 79936, 0.000000, 0.000000, 0.000000, 0.000000, 0.000000, 0.000000, 0.000000, 1, 1100, 1100, 1100, 1100
-18.292530, -13.205390, 15.842879, -0.270155, -0.430202, -0.127824, -11.020169, 24.028061, -62.028648, 1.000000, -1.000000, 0.000000, 0.000489, 0.000558, 0.004966, 79940, 0.000000, 0.000000, 0.000000, 0.000000, 0.000000, 0.000000, 0.000000, 1, 1100, 1100, 1100, 1100
-11.513066, 13.378271, 14.906090, -0.547946, 0.735024, -0.055741, -11.882491, 23.706518, -61.824028, 1.000000, 0.000000, 0.000000, 0.000522, 0.000588, 0.004943, 79936, 0.000000, 0.000000, 0.000000, 0.000000, 0.000000, 0.000000, 0.000000, 1, 1100, 1100, 1100, 1100
6.215955, 0.458226, 10.351351, -0.210443, -0.331700, -0.001374, -11.297866, 22.785736, -62.584042, 1.000000, -1.000000, 0.000000, 0.000519, 0.000656, 0.004921, 79936, 0.000000, 0.000000, 0.000000, 0.000000, 0.000000, 0.000000, 0.000000, 1, 1100, 1100, 1100, 1100
12.772288, -9.471989, 7.986644, 0.724181, 0.122631, 0.097738, -11.020169, 22.771120, -63.095589, 1.000000, -2.000000, 0.000000, 0.000535, 0.000695, 0.004898, 79944, 0.000000, 0.000000, 0.000000, 0.000000, 0.000000, 0.000000, 0.000000, 1, 1100, 1100, 1100, 1100
-13.060624, -8.818150, 12.661621, 0.072388, -0.627817, 0.006872, -11.312482, 24.919615, -63.080971, 0.000000, -1.000000, 0.000000, 0.000554, 0.000731, 0.004876, 79940, 0.000000, 0.000000, 0.000000, 0.000000, 0.000000, 0.000000, 0.000000, 1, 1100, 1100, 1100, 1100
9.042477, 10.009775, 15.765711, -0.455705, 0.005040, -0.091019, -11.064016, 23.911137, -61.648643, 1.000000, -1.000000, 0.000000, 0.000583, 0.000758, 0.004854, 79932, 0.000000, 0.000000, 0.000000, 0.000000, 0.000000, 0.000000, 0.000000, 1, 1100, 1100, 1100, 1100
9.900304, -9.590433, -1.774278, 0.886824, 0.349415, 0.271835, -10.961707, 22.654196, -62.510960, 1.000000, -2.000000, 0.000000, 0.000604, 0.000787, 0.004832, 79936, 0.000000, 0.000000, 0.000000, 0.000000, 0.000000, 0.000000, 0.000000, 1, 1100, 1100, 1100, 1100
-19.185652, -7.728817, 15.010178, -0.382707, 0.206625, 0.005956, -10.932476, 23.545746, -62.014030, 0.000000, -1.000000, 0.000000, 0.000612, 0.000842, 0.004810, 79932, 0.000000, 0.000000, 0.000000, 0.000000, 0.000000, 0.000000, 0.000000, 1, 1100, 1100, 1100, 1100
5.131408, -4.022335, 5.602196, 0.419054, 0.125075, 0.018631, -10.508623, 22.829582, -62.028648, 0.000000, -2.000000, 0.000000, 0.000631, 0.000878, 0.004789, 79936, 0.000000, 0.000000, 0.000000, 0.000000, 0.000000, 0.000000, 0.000000, 1, 1100, 1100, 1100, 1100
7.645666, -14.383257, 6.367301, 0.336281, 0.120188, -0.060018, -10.640163, 23.326513, -62.423271, -1.000000, -2.000000, 0.000000, 0.000675, 0.000888, 0.004768, 79936, 0.000000, 0.000000, 0.000000, 0.000000, 0.000000, 0.000000, 0.000000, 1, 1100, 1100, 1100, 1100
15.484553, 11.836098, 15.282957, -0.685849, 0.704328, 0.022449, -11.151711, 22.800350, -62.584042, -1.000000, -3.000000, 0.000000, 0.000693, 0.000917, 0.004747, 79936, 0.000000, 0.000000, 0.000000, 0.000000, 0.000000, 0.000000, 0.000000, 1, 1100, 1100, 1100, 1100
-3.229114, -10.832907, -1.264607, 0.594525, -0.934166, 0.261603, -10.786320, 23.224203, -62.554806, -1.000000, -3.000000, 0.000000, 0.000743, 0.000915, 0.004726, 79940, 0.000000, 0.000000, 0.000000, 0.000000, 0.000000, 0.000000, 0.000000, 1, 1100, 1100, 1100, 1100
13.747962, 1.782055, 7.887940, -0.220980, 0.812298, -0.020311, -10.786320, 23.925753, -62.087105, -1.000000, -4.000000, 0.000000, 0.000741, 0.000965, 0.004705, 79932, 0.000000, 0.000000, 0.000000, 0.000000, 0.000000, 0.000000, 0.000000, 1, 1100, 1100, 1100, 1100
14.023137, -11.647064, 9.518648, 0.580475, 0.383623, 0.092699, -10.815551, 23.501900, -62.642502, -2.000000, -4.000000, 0.000000, 0.000760, 0.000994, 0.004685, 79940, 0.000000, 0.000000, 0.000000, 0.000000, 0.000000, 0.000000, 0.000000, 1, 1100, 1100, 1100, 1100
-3.029313, 1.721636, -0.058624, -0.987464, 0.140957, -0.085521, -11.254020, 23.808828, -62.247879, -1.000000, -4.000000, 0.000000, 0.000768, 0.001039, 0.004665, 79936, 0.000000, 0.000000, 0.000000, 0.000000, 0.000000, 0.000000, 0.000000, 1, 1100, 1100, 1100, 1100
19.599611, -7.150951, 13.386048, 0.397062, -0.024435, -0.046273, -10.903244, 22.741888, -62.569420, -2.000000, -4.000000, 0.000000, 0.000770, 0.001090, 0.004645, 79936, 0.000000, 0.000000, 0.000000, 0.000000, 0.000000, 0.000000, 0.000000, 1, 1100, 1100, 1100, 1100
-10.205389, 14.886947, 7.304689, -0.820087, 0.278555, -0.191201, -10.786320, 24.042679, -62.101723, -1.000000, -4.000000, 0.000000, 0.000802, 0.001108, 0.004625, 79936, 0.000000, 0.000000, 0.000000, 0.000000, 0.000000, 0.000000, 0.000000, 1, 1100, 1100, 1100, 1100
-7.832307, 4.916652, 5.870790, 0.153785, -0.164628, 0.239765, -10.786320, 23.209589, -62.715576, -1.000000, -3.000000, 0.000000, 0.000817, 0.001148, 0.004605, 79936, 0.000000, 0.000000, 0.000000, 0.000000, 0.000000, 0.000000, 0.000000, 1, 1100, 1100, 1100, 1100
-7.780861, -18.561724, 18.203997, 0.218690, -0.924545, -0.044746, -11.093247, 22.624964, -62.788658, -1.000000, -3.000000, 0.000000, 0.000863, 0.001150, 0.004585, 79940, 0.000000, 0.000000, 0.000000, 0.000000, 0.000000, 0.000000, 0.000000, 1, 1100, 1100, 1100, 1100
-1.821536, 1.844866, 5.904290, 0.165697, 0.052229, -0.201891, -11.020169, 22.581118, -62.964046, -1.000000, -2.000000, 0.000000, 0.000891, 0.001176, 0.004566, 79940, 0.000000, 0.000000, 0.000000, 0.000000, 0.000000, 0.000000, 0.000000, 1, 1100, 1100, 1100, 1100
-9.108877, -4.755735, 10.489536, -0.122173, -0.831540, 0.043677, -9.792459, 23.165741, -61.707104, -1.000000, -1.000000, 0.000000, 0.000900, 0.001213, 0.004547, 79944, 0.000000, 0.000000, 0.000000, 0.000000, 0.000000, 0.000000, 0.000000, 1, 1100, 1100, 1100, 1100
6.435497, 7.131210, 10.794023, -0.258396, -0.174555, -0.149967, -10.128617, 22.449577, -62.218647, 0.000000, -2.000000, 0.000000, 0.000930, 0.001236, 0.004528, 79932, 0.000000, 0.000000, 0.000000, 0.000000, 0.000000, 0.000000, 0.000000, 1, 1100, 1100, 1100, 1100
11.863017, -9.140583, 3.699902, 0.920421, 0.110567, 0.256869, -10.874014, 22.668810, -61.677872, -1.000000, -3.000000, 0.000000, 0.000942, 0.001269, 0.004509, 79936, 0.000000, 0.000000, 0.000000, 0.000000, 0.000000, 0.000000, 0.000000, 1, 1100, 1100, 1100, 1100
-12.725629, 10.001400, 4.060022, -0.836885, 0.293063, -0.003512, -10.874014, 23.297281, -61.911720, 0.000000, -2.000000, 0.000000, 0.000957, 0.001303, 0.004490, 79932, 0.000000, 0.000000, 0.000000, 0.000000, 0.000000, 0.000000, 0.000000, 1, 1100, 1100, 1100, 1100
12.879966, -10.164711, 6.879365, 0.711047, -0.771523, 0.200517, -11.195557, 23.428822, -61.458633, -1.000000, -3.000000, 0.000000, 0.000971, 0.001342, 0.004471, 79936, 0.000000, 0.000000, 0.000000, 0.000000, 0.000000, 0.000000, 0.000000, 1, 1100, 1100, 1100, 1100
-10.603194, 0.188435, 12.105289, -0.270461, -0.061392, -0.155618, -11.473253, 23.136511, -61.297863, -1.000000, -2.000000, 0.000000, 0.000967, 0.001397, 0.004453, 79936, 0.000000, 0.000000, 0.000000, 0.000000, 0.000000, 0.000000, 0.000000, 1, 1100, 1100, 1100, 1100
13.121042, 10.508679, 11.531610, 0.465937, 0.425468, 0.041233, -11.049401, 22.654196, -62.174805, 0.000000, -3.000000, 0.000000, 0.000991, 0.001423, 0.004435, 79936, 0.000000, 0.000000, 0.000000, 0.000000, 0.000000, 0.000000, 0.000000, 1, 1100, 1100, 1100, 1100
-19.599611, -4.487739, 15.294923, -0.942412, -0.762360, 0.059254, -11.224789, 24.144987, -61.955570, -1.000000, -2.000000, 0.000000, 0.000992, 0.001468, 0.004416, 79936, 0.000000, 0.000000, 0.000000, 0.000000, 0.000000, 0.000000, 0.000000, 1, 1100, 1100, 1100, 1100
11.072786, 9.208777, 7.868199, 0.298255, 0.043830, 0.135307, -10.230927, 22.771120, -62.014030, 0.000000, -2.000000, 0.000000, 0.001015, 0.001496, 0.004398, 79936, 0.000000, 0.000000, 0.000000, 0.000000, 0.000000, 0.000000, 0.000000, 1, 1100, 1100, 1100, 1100
-15.036497, -0.650848, 19.599611, 0.124922, -0.323759, -0.021838, -11.560947, 23.136511, -61.984802, 0.000000, -1.000000, 0.000000, 0.001011, 0.001546, 0.004380, 79940, 0.000000, 0.000000, 0.000000, 0.000000, 0.000000, 0.000000, 0.000000, 1, 1100, 1100, 1100, 1100
-13.350755, 18.649660, 9.156136, -0.118661, -0.261908, 0.182191, -10.596317, 22.931892, -63.417130, 1.000000, -1.000000, 0.000000, 0.001045, 0.001558, 0.004362, 79936, 0.000000, 0.000000, 0.000000, 0.000000, 0.000000, 0.000000, 0.000000, 1, 1100, 1100, 1100, 1100
3.811168, -11.106885, 8.431708, 0.688598, -0.484874, -0.078343, -10.932476, 23.501900, -62.014030, 0.000000, -1.000000, 0.000000, 0.001087, 0.001560, 0.004345, 79936, 0.000000, 0.000000, 0.000000, 0.000000, 0.000000, 0.000000, 0.000000, 1, 1100, 1100, 1100, 1100
-0.754337, 10.959726, 14.061422, -0.128893, 0.871552, -0.000611, -11.151711, 23.984215, -61.970184, 1.000000, -1.000000, 0.000000, 0.001140, 0.001555, 0.004327, 79936, 0.000000, 0.000000, 0.000000, 0.000000, 0.000000, 0.000000, 0.000000, 1, 1100, 1100, 1100, 1100
-10.549955, -4.192225, 1.476970, 0.418595, -0.031765, 0.169057, -11.078632, 23.677288, -62.861736, 1.000000, 0.000000, 0.000000, 0.001142, 0.001599, 0.004310, 79936, 0.000000, 0.000000, 0.000000, 0.000000, 0.000000, 0.000000, 0.000000, 1, 1100, 1100, 1100, 1100
4.506882, 3.065804, 19.114466, 0.105832, 0.209069, 0.007941, -11.283250, 23.341127, -61.955570, 1.000000, -1.000000, 0.000000, 0.001153, 0.001631, 0.004293, 79940, 0.000000, 0.000000, 0.000000, 0.000000, 0.000000, 0.000000, 0.000000, 1, 1100, 1100, 1100, 1100
2.266601, -10.035499, 1.252044, 0.683864, 0.401949, 0.264046, -10.640163, 24.013447, -62.014030, 0.000000, -1.000000, 0.000000, 0.001197, 0.001627, 0.004276, 79940, 0.000000, 0.000000, 0.000000, 0.000000, 0.000000, 0.000000, 0.000000, 1, 1100, 1100, 1100, 1100
0.095115, 6.922436, 8.299505, -0.462730, 0.997848, 0.071777, -10.713242, 24.130371, -61.590176, 1.000000, -1.000000, 0.000000, 0.001245, 0.001621, 0.004259, 79936, 0.000000, 0.000000, 0.000000, 0.000000, 0.000000, 0.000000, 0.000000, 1, 1100, 1100, 1100, 1100
-2.007578, -13.236497, -0.524626, 0.796721, -0.625068, 0.218384, -10.304005, 22.698042, -62.540192, 0.000000, -1.000000, 0.000000, 0.001290, 0.001614, 0.004242, 79940, 0.000000, 0.000000, 0.000000, 0.000000, 0.000000, 0.000000, 0.000000, 1, 1100, 1100, 1100, 1100
6.984650, 9.827322, 13.953745, -0.422261, 0.893543, -0.056047, -10.830167, 23.092663, -62.525578, 1.000000, -2.000000, 0.000000, 0.001319, 0.001623, 0.004226, 79936, 0.000000, 0.000000, 0.000000, 0.000000, 0.000000, 0.000000, 0.000000, 1, 1100, 1100, 1100, 1100
-2.449054, -2.171487, 4.842475, 0.279165, 0.154549, 0.039095, -10.932476, 23.297281, -62.101723, 0.000000, -1.000000, 0.000000, 0.001337, 0.001649, 0.004209, 79932, 0.000000, 0.000000, 0.000000, 0.000000, 0.000000, 0.000000, 0.000000, 1, 1100, 1100, 1100, 1100
-2.233102, 16.623537, 4.920840, -0.844979, -0.016799, -0.044746, -11.663257, 22.771120, -62.087105, 1.000000, -1.000000, 0.000000, 0.001380, 0.001643, 0.004193, 79936, 0.000000, 0.000000, 0.000000, 0.000000, 0.000000, 0.000000, 0.000000, 1, 1100, 1100, 1100, 1100
17.802002, -1.381855, 7.625328, 0.741896, 0.273515, 0.046578, -10.610932, 22.698042, -62.584042, 1.000000, -2.000000, 0.000000, 0.001375, 0.001691, 0.004176, 79936, 0.000000, 0.000000, 0.000000, 0.000000, 0.000000, 0.000000, 0.000000, 1, 1100, 1100, 1100, 1100
-15.168701, 4.933402, 4.973482, -0.599106, 0.112552, 0.011759, -11.034785, 22.800350, -62.481731, 1.000000, -1.000000, 0.000000, 0.001373, 0.001736, 0.004160, 79936, 0.000000, 0.000000, 0.000000, 0.000000, 0.000000, 0.000000, 0.000000, 1, 1100, 1100, 1100, 1100
-8.437093, 6.174679, -0.046062, 0.279929, -0.316734, 0.164781, -11.093247, 23.384975, -62.803276, 2.000000, 0.000000, 0.000000, 0.001390, 0.001763, 0.004144, 79936, 0.000000, 0.000000, 0.000000, 0.000000, 0.000000, 0.000000, 0.000000, 1, 1100, 1100, 1100, 1100
4.192823, -8.977273, 13.057035, -0.028253, -0.299629, -0.088728, -11.020169, 23.034201, -62.817890, 1.000000, -1.000000, 0.000000, 0.001430, 0.001768, 0.004128, 79936, 0.000000, 0.000000, 0.000000, 0.000000, 0.000000, 0.000000, 0.000000, 1, 1100, 1100, 1100, 1100
5.564509, 15.005391, 8.833703, -0.276875, 0.820239, -0.166308, -11.634025, 23.852674, -62.379421, 2.000000, -1.000000, 0.000000, 0.001470, 0.001766, 0.004112, 79940, 0.000000, 0.000000, 0.000000, 0.000000, 0.000000, 0.000000, 0.000000, 1, 1100, 1100, 1100, 1100
-7.578069, -2.425126, 10.804790, 0.353844, -0.746019, 0.196240, -11.254020, 23.311897, -61.400177, 2.000000, 0.000000, 0.000000, 0.001470, 0.001802, 0.004097, 79936, 0.000000, 0.000000, 0.000000, 0.000000, 0.000000, 0.000000, 0.000000, 1, 1100, 1100, 1100, 1100
8.781061, 8.152946, 8.856435, -0.455247, 0.574061, -0.098349, -11.692488, 23.107279, -61.970184, 2.000000, -1.000000, 0.000000, 0.001485, 0.001822, 0.004081, 79936, 0.000000, 0.000000, 0.000000, 0.000000, 0.000000, 0.000000, 0.000000, 1, 1100, 1100, 1100, 1100
9.736994, -0.911665, 7.497312, 0.671494, 0.839787, 0.134390, -11.370944, 23.794212, -62.920200, 2.000000, -1.000000, 0.000000, 0.001480, 0.001862, 0.004066, 79936, 0.000000, 0.000000, 0.000000, 0.000000, 0.000000, 0.000000, 0.000000, 1, 1100, 1100, 1100, 1100
-8.057232, -9.412766, 9.967302, 0.147677, -0.147677, 0.260839, -10.318621, 23.516516, -62.350189, 2.000000, -1.000000, 0.000000, 0.001506, 0.001877, 0.004050, 79936, 0.000000, 0.000000, 0.000000, 0.000000, 0.000000, 0.000000, 0.000000, 1, 1100, 1100, 1100, 1100
-4.856234, 9.631709, 9.541978, -0.377820, 0.600480, -0.120951, -11.575562, 23.750364, -61.955570, 2.000000, 0.000000, 0.000000, 0.001541, 0.001883, 0.004035, 79940, 0.000000, 0.000000, 0.000000, 0.000000, 0.000000, 0.000000, 0.000000, 1, 1100, 1100, 1100, 1100
2.179263, 12.348161, 19.143778, 0.756557, 0.970359, 0.056810, -11.429407, 22.946507, -62.569420, 3.000000, -1.000000, 0.000000, 0.001593, 0.001877, 0.004020, 79944, 0.000000, 0.000000, 0.000000, 0.000000, 0.000000, 0.000000, 0.000000, 1, 1100, 1100, 1100, 1100
-14.358132, 2.327618, -2.012962, 0.440281, -0.595746, 0.184023, -11.122478, 23.472668, -62.028648, 3.000000, 0.000000, 0.000000, 0.001590, 0.001917, 0.004005, 79936, 0.000000, 0.000000, 0.000000, 0.000000, 0.000000, 0.000000, 0.000000, 1, 1100, 1100, 1100, 1100
-13.832907, 1.578066, 12.192628, -0.340863, -0.549473, -0.021686, -14.849459, 23.311897, -62.189419, 3.000000, 1.000000, 0.000000, 0.001584, 0.001958, 0.003990, 79936, 0.000000, 0.000000, 0.000000, 0.000000, 0.000000, 0.000000, 0.000000, 1, 1100, 1100, 1100, 1100
0.413958, 4.437490, 2.207379, 0.058490, 0.504575, -0.052534, -11.677872, 23.224203, -61.604794, 4.000000, 1.000000, 0.000000, 0.001631, 0.001951, 0.003976, 79936, 0.000000, 0.000000, 0.000000, 0.000000, 0.000000, 0.000000, 0.000000, 1, 1100, 1100, 1100, 1100
1.907080, 1.195215, 11.287543, 0.354607, 0.201891, 0.102625, -11.341713, 23.721134, -61.663258, 5.000000, 0.000000, 0.000000, 0.001627, 0.001989, 0.003961, 79932, 0.000000, 0.000000, 0.000000, 0.000000, 0.000000, 0.000000, 0.000000, 1, 1100, 1100, 1100, 1100
1.158126, -13.715062, 5.905487, 0.591012, -0.501979, 0.269392, -11.195557, 24.948845, -62.028648, 4.000000, 0.000000, 0.000000, 0.001669, 0.001983, 0.003947, 79936, 0.000000, 0.000000, 0.000000, 0.000000, 0.000000, 0.000000, 0.000000, 1, 1100, 1100, 1100, 1100
-8.501699, -3.198008, 17.306089, -0.059254, 0.807106, -0.033903, -11.955568, 22.931892, -62.394035, 3.000000, 1.000000, 0.000000, 0.001674, 0.002024, 0.003932, 79936, 0.000000, 0.000000, 0.000000, 0.000000, 0.000000, 0.000000, 0.000000, 1, 1100, 1100, 1100, 1100
-9.479765, 12.169297, 10.749158, -0.070708, 0.618959, 0.053756, -11.765566, 22.712656, -61.268635, 4.000000, 2.000000, 0.000000, 0.001701, 0.002039, 0.003918, 79936, 0.000000, 0.000000, 0.000000, 0.000000, 0.000000, 0.000000, 0.000000, 1, 1100, 1100, 1100, 1100
5.657829, -5.879165, 16.908882, 0.848644, -0.682642, 0.363312, -10.742473, 23.911137, -62.350189, 3.000000, 1.000000, 0.000000, 0.001717, 0.002061, 0.003904, 79936, 0.000000, 0.000000, 0.000000, 0.000000, 0.000000, 0.000000, 0.000000, 1, 1100, 1100, 1100, 1100
9.763314, -12.424730, 0.902692, 0.621555, -0.122937, -0.037263, -10.318621, 23.151125, -62.057877, 3.000000, 0.000000, 0.000000, 0.001738, 0.002076, 0.003889, 79940, 0.008000, 0.000000, 0.000000, 0.000000, 0.000000, 0.000000, 0.000000, 1, 1103, 1103, 1103, 1103
-14.960526, 10.539187, 3.631706, -0.632551, 0.730442, 0.036499, -11.239404, 23.764982, -62.964046, 3.000000, 1.000000, 0.000000, 0.001747, 0.002108, 0.003875, 79960, 0.010000, 0.000000, 0.000000, 0.000000, 0.000000, 0.000000, 0.000000, 1, 1104, 1104, 1104, 1104
-0.659223, -1.104886, 12.131013, 0.256869, 0.186619, 0.123395, -11.370944, 23.180357, -61.838646, 2.000000, 1.000000, 0.000000, 0.001782, 0.002101, 0.003862, 79936, 0.014000, 0.000000, 0.000000, 0.000000, 0.000000, 0.000000, 0.000000, 1, 1105, 1105, 1105, 1105
19.599611, -12.733406, 10.975279, 0.992656, 0.375377, 0.119424, -10.669394, 23.092663, -62.437885, 2.000000, 0.000000, 0.000000, 0.001786, 0.002128, 0.003848, 79932, 0.025000, 0.000000, 0.000000, 0.000000, 0.000000, 0.000000, 0.000000, 1, 1110, 1110, 1110, 1110
-10.447062, -6.860821, 10.765309, -0.229074, 0.206320, -0.067653, -10.406314, 23.677288, -62.320961, 1.000000, 1.000000, 0.000000, 0.001798, 0.002157, 0.003835, 79948, 0.029000, 0.000000, 0.000000, 0.000000, 0.000000, 0.000000, 0.000000, 1, 1111, 1111, 1111, 1111
2.348556, 6.501898, 18.133408, -0.321162, 0.132100, 0.167072, -11.429407, 22.712656, -63.767902, 2.000000, 1.000000, 0.000000, 0.001828, 0.002160, 0.003821, 79936, 0.029000, 0.000000, 0.000000, 0.000000, 0.000000, 0.000000, 0.000000, 1, 1111, 1111, 1111, 1111
-14.646468, -10.776675, 10.847264, 0.560622, -1.119105, 0.348651, -11.297866, 23.048817, -63.431747, 2.000000, 1.000000, 0.000000, 0.001839, 0.002177, 0.003807, 79944, 0.031000, 0.000000, 0.000000, 0.000000, 0.000000, 0.000000, 0.000000, 1, 1112, 1112, 1112, 1112
16.522440, 1.428515, 16.215561, 0.398131, 0.433256, 0.010385, -11.414791, 23.443438, -62.715576, 2.000000, 0.000000, 0.000000, 0.001833, 0.002216, 0.003794, 79944, 0.031000, 0.000000, 0.000000, 0.000000, 0.000000, 0.000000, 0.000000, 1, 1112, 1112, 1112, 1112
1.876571, -15.329021, 15.165112, 0.168293, 0.210749, -0.029322, -10.990938, 23.194971, -62.306343, 1.000000, 0.000000, 0.000000, 0.001875, 0.002209, 0.003781, 79932, 0.031000, 0.000000, 0.000000, 0.000000, 0.000000, 0.000000, 0.000000, 1, 1112, 1112, 1112, 1112
7.709675, 7.144371, 5.706284, 0.430813, 0.446695, 0.060628, -11.575562, 24.042679, -63.007893, 2.000000, 0.000000, 0.000000, 0.001893, 0.002227, 0.003767, 79936, 0.031000, 0.000000, 0.000000, 0.000000, 0.000000, 0.000000, 0.000000, 1, 1112, 1112, 1112, 1112
-1.622334, 15.586847, 4.414758, -0.800233, 0.337503, -0.056658, -10.961707, 23.019585, -63.285591, 2.000000, 0.000000, 0.000000, 0.001930, 0.002220, 0.003754, 79936, 0.031000, 0.000000, 0.000000, 0.000000, 0.000000, 0.000000, 0.000000, 1, 1112, 1112, 1112, 1112
-3.678366, -2.439482, 8.380861, 0.011301, -0.473421, 0.156840, -10.537854, 23.034201, -62.569420, 2.000000, 0.000000, 0.000000, 0.001942, 0.002241, 0.003741, 79932, 0.033000, 0.000000, 0.000000, 0.000000, 0.000000, 0.000000, 0.000000, 1, 1113, 1113, 1113, 1113
-9.859627, 11.763715, 1.841277, 0.192575, -0.498466, 0.129962, -11.560947, 23.224203, -62.467117, 3.000000, 1.000000, 0.000000, 0.001968, 0.002250, 0.003728, 79936, 0.037000, 0.000000, 0.000000, 0.000000, 0.000000, 0.000000, 0.000000, 1, 1114, 1114, 1114, 1114
-17.286348, -7.068997, 0.575474, -0.350178, -0.710742, 0.042455, -11.180941, 22.829582, -62.540192, 2.000000, 2.000000, 0.000000, 0.001970, 0.002279, 0.003715, 79940, 0.041000, 0.000000, 0.000000, 0.000000, 0.000000, 0.000000, 0.000000, 1, 1116, 1116, 1116, 1116
2.711666, -13.064213, 8.617153, 0.888198, -0.411570, -0.009927, -10.625548, 23.092663, -63.650978, 1.000000, 2.000000, 0.000000, 0.002003, 0.002276, 0.003703, 79932, 0.046000, 0.000000, 0.000000, 0.000000, 0.000000, 0.000000, 0.000000, 1, 1118, 1118, 1118, 1118
19.599611, -8.062017, -1.505085, 0.560469, 0.802677, -0.006109, -11.224789, 24.013447, -63.285591, 1.000000, 1.000000, 0.000000, 0.002001, 0.002306, 0.003690, 79936, 0.050000, 0.000000, 0.000000, 0.000000, 0.000000, 0.000000, 0.000000, 1, 1120, 1120, 1120, 1120
-2.036292, 6.518647, 11.560922, -0.718988, 0.021533, -0.206625, -11.268635, 23.165741, -63.168663, 2.000000, 1.000000, 0.000000, 0.002035, 0.002300, 0.003677, 79948, 0.047000, 0.000000, 0.000000, 0.000000, 0.000000, 0.000000, 0.000000, 1, 1118, 1118, 1118, 1118
18.426529, -11.701502, 14.254045, 0.824515, 0.202044, 0.077427, -10.654779, 23.750364, -63.709442, 2.000000, 0.000000, 0.000000, 0.002038, 0.002327, 0.003665, 79940, 0.056000, 0.000000, 0.000000, 0.000000, 0.000000, 0.000000, 0.000000, 1, 1122, 1122, 1122, 1122
19.191635, -13.803596, 9.054441, 0.933860, 0.335212, 0.200211, -11.034785, 22.595732, -64.060219, 1.000000, -1.000000, 0.000000, 0.002043, 0.002350, 0.003652, 79936, 0.072000, 0.000000, 0.000000, 0.000000, 0.000000, 0.000000, 0.000000, 1, 1128, 1128, 1128, 1128
19.599611, 5.045865, 7.712068, 0.259312, 0.640187, 0.023060, -11.283250, 22.961123, -63.577904, 1.000000, -1.000000, 0.000000, 0.002040, 0.002383, 0.003640, 79940, 0.059000, 0.000000, 0.000000, 0.000000, 0.000000, 0.000000, 0.000000, 1, 1123, 1123, 1123, 1123
0.088534, 12.056835, 10.843077, -0.306960, -0.175318, -0.012523, -11.166326, 23.311897, -63.811749, 2.000000, -1.000000, 0.000000, 0.002079, 0.002375, 0.003628, 79920, 0.062000, 0.000000, 0.000000, 0.000000, 0.000000, 0.000000, 0.000000, 1, 1124, 1124, 1124, 1124
-14.853446, -9.956534, -2.574677, -0.040470, -0.270766, 0.119424, -10.771705, 23.092663, -59.894772, 2.000000, -1.000000, 0.000000, 0.002088, 0.002399, 0.003615, 79936, 0.066000, 0.000000, 0.000000, 0.000000, 0.000000, 0.000000, 0.000000, 1, 1126, 1126, 1126, 1126
-19.599611, -0.166301, 19.599611, -0.527482, -0.174707, 0.067959, -11.517100, 23.589594, -64.001755, 2.000000, 0.000000, 0.000000, 0.002081, 0.002439, 0.003603, 79944, 0.070000, 0.000000, 0.000000, 0.000000, 0.000000, 0.000000, 0.000000, 1, 1128, 1128, 1128, 1128
-18.650259, -11.075180, 19.569101, -0.558484, -0.097280, -0.149662, -10.844782, 24.247295, -63.884830, 1.000000, 1.000000, 0.000000, 0.002091, 0.002464, 0.003591, 79936, 0.078000, 0.000000, 0.000000, 0.000000, 0.000000, 0.000000, 0.000000, 1, 1131, 1131, 1131, 1131
-4.713263, -5.438886, 19.599611, -0.124922, -0.315665, -0.273057, -10.698627, 23.063431, -63.563286, 0.000000, 1.000000, 0.000000, 0.002117, 0.002470, 0.003580, 79940, 0.081000, 0.000000, 0.000000, 0.000000, 0.000000, 0.000000, 0.000000, 1, 1132, 1132, 1132, 1132
19.599611, -19.599611, 17.867207, 1.208139, 0.224951, 0.031612, -10.888629, 22.785736, -64.030991, 0.000000, 1.000000, 0.000000, 0.002125, 0.002487, 0.003568, 79932, 0.082000, 0.000000, 0.000000, 0.000000, 0.000000, 0.000000, 0.000000, 1, 1132, 1132, 1132, 1132
-19.566710, -9.629316, 9.766904, -0.091630, -0.808938, 0.177304, -10.874014, 22.171881, -64.440224, -1.000000, 2.000000, 0.000000, 0.002128, 0.002511, 0.003556, 79928, 0.084000, 0.000000, 0.000000, 0.000000, 0.000000, 0.000000, 0.000000, 1, 1133, 1133, 1133, 1133
-8.258827, 10.316655, 1.326820, -1.206764, 0.088270, -0.131336, -11.283250, 24.393454, -64.820229, 0.000000, 2.000000, 0.000000, 0.002145, 0.002520, 0.003544, 79936, 0.086000, 0.000000, 0.000000, 0.000000, 0.000000, 0.000000, 0.000000, 1, 1134, 1134, 1134, 1134
9.207582, 7.697711, 15.011374, -0.128129, 0.945619, -0.123700, -10.830167, 23.048817, -64.425606, 1.000000, 1.000000, 0.000000, 0.002155, 0.002536, 0.003533, 79940, 0.091000, 0.000000, 0.000000, 0.000000, 0.000000, 0.000000, 0.000000, 1, 1136, 1136, 1136, 1136
-8.686544, 10.378868, 19.599611, -0.887129, 0.195935, 0.124006, -11.166326, 22.902660, -64.907921, 1.000000, 2.000000, 0.000000, 0.002174, 0.002544, 0.003521, 79936, 0.095000, 0.000000, 0.000000, 0.000000, 0.000000, 0.000000, 0.000000, 1, 1138, 1138, 1138, 1138
3.608377, 17.218752, 14.504692, -0.851852, -0.221897, -0.370795, -11.429407, 23.808828, -65.010231, 2.000000, 2.000000, 0.000000, 0.002204, 0.002540, 0.003510, 79956, 0.097000, 0.000000, 0.000000, 0.000000, 0.000000, 0.000000, 0.000000, 1, 1138, 1138, 1138, 1138
3.766901, -19.599611, 1.194018, 0.981813, -0.286801, 0.092546, -10.494008, 23.063431, -65.141769, 1.000000, 1.000000, 0.000000, 0.002234, 0.002535, 0.003498, 79940, 0.094000, 0.000000, 0.000000, 0.000000, 0.000000, 0.000000, 0.000000, 1, 1137, 1137, 1137, 1137
4.657031, -2.359323, 4.784449, 0.685238, 0.243124, 0.065973, -10.976323, 22.668810, -64.864075, 1.000000, 1.000000, 0.000000, 0.002233, 0.002563, 0.003487, 79936, 0.104000, 0.000000, 0.000000, 0.000000, 0.000000, 0.000000, 0.000000, 1, 1141, 1141, 1141, 1141
-1.364507, -11.676974, 5.059025, 1.191493, -0.617737, -0.093157, -10.844782, 22.551886, -64.250221, 0.000000, 1.000000, 0.000000, 0.002264, 0.002555, 0.003476, 79936, 0.117000, 0.000000, 0.000000, 0.000000, 0.000000, 0.000000, 0.000000, 1, 1146, 1146, 1146, 1146
-10.392029, -8.547162, 19.599611, -0.273668, -1.101237, -0.114079, -10.961707, 22.902660, -64.966385, -1.000000, 1.000000, 0.000000, 0.002278, 0.002567, 0.003465, 79916, 0.119000, 0.000000, 0.000000, 0.000000, 0.000000, 0.000000, 0.000000, 1, 1147, 1147, 1147, 1147
-10.798210, -2.860620, -14.804394, -0.085216, -0.887129, 0.011912, -10.698627, 22.785736, -65.711777, -1.000000, 2.000000, 0.000000, 0.002274, 0.002595, 0.003453, 79936, 0.121000, 0.000000, 0.000000, 0.000000, 0.000000, 0.000000, 0.000000, 1, 1148, 1148, 1148, 1148
19.599611, 19.599611, 19.599611, -1.452179, 0.224035, -0.046884, -10.859398, 21.806488, -65.682549, 0.000000, 1.000000, 0.000000, 0.002282, 0.002610, 0.003442, 79940, 0.127000, 0.000000, 0.000000, 0.000000, 0.000000, 0.000000, 0.000000, 1, 1150, 1150, 1150, 1150
-6.643074, -3.903890, 7.928020, 0.223119, -0.699899, 0.270155, -10.610932, 22.537270, -65.594856, -1.000000, 2.000000, 0.000000, 0.002286, 0.002631, 0.003431, 79936, 0.131000, 0.000000, 0.000000, 0.000000, 0.000000, 0.000000, 0.000000, 1, 1152, 1152, 1152, 1152
-13.725230, -19.599611, 19.418953, 0.314748, -0.358425, -0.125533, -10.859398, 22.946507, -65.916405, -1.000000, 3.000000, 0.000000, 0.002310, 0.002634, 0.003421, 79944, 0.133000, 0.000000, 0.000000, 0.000000, 0.000000, 0.000000, 0.000000, 1, 1153, 1153, 1153, 1153
5.947361, 14.423935, 0.521635, -0.286496, 0.078649, -0.100640, -11.005553, 22.244957, -65.931015, -1.000000, 2.000000, 0.000000, 0.002339, 0.002633, 0.003410, 79936, 0.133000, 0.000000, 0.000000, 0.000000, 0.000000, 0.000000, 0.000000, 1, 1153, 1153, 1153, 1153
-3.762714, -0.224925, 8.907881, -0.358578, -0.569937, -0.144317, -10.698627, 23.779596, -66.267174, -1.000000, 3.000000, 0.000000, 0.002332, 0.002665, 0.003399, 79936, 0.135000, 0.000000, 0.000000, 0.000000, 0.000000, 0.000000, 0.000000, 1, 1154, 1154, 1154, 1154
-8.793623, 17.613567, 19.584059, -1.952631, 0.378736, -0.093157, -11.195557, 22.741888, -66.179482, 0.000000, 3.000000, 0.000000, 0.002352, 0.002662, 0.003388, 79936, 0.133000, 0.000000, 0.000000, 0.000000, 0.000000, 0.000000, 0.000000, 1, 1153, 1153, 1153, 1153
-17.845074, -3.875176, 8.159525, 0.983035, -0.965473, 0.240070, -10.640163, 21.938030, -65.609474, 0.000000, 4.000000, 0.000000, 0.002345, 0.002690, 0.003378, 79932, 0.135000, 0.000000, 0.000000, 0.000000, 0.000000, 0.000000, 0.000000, 1, 1154, 1154, 1154, 1154
-0.245863, -11.164312, -8.221739, 0.523664, 0.313374, 0.230296, -10.742473, 21.090324, -66.077171, -1.000000, 4.000000, 0.000000, 0.002379, 0.002682, 0.003368, 79936, 0.136000, 0.000000, 0.000000, 0.000000, 0.000000, 0.000000, 0.000000, 1, 1154, 1154, 1154, 1154
11.645269, -9.506684, -0.479163, 0.635453, -0.454178, -0.193644, -10.844782, 21.382637, -66.807953, -1.000000, 4.000000, 0.000000, 0.002385, 0.002706, 0.003357, 79960, 0.135000, 0.000000, 0.000000, 0.000000, 0.000000, 0.000000, 0.000000, 1, 1154, 1154, 1154, 1154
0.394816, 7.325626, 13.703097, -1.111928, 0.586431, -0.193492, -10.976323, 21.251097, -65.083305, -1.000000, 3.000000, 0.000000, 0.002412, 0.002699, 0.003347, 79936, 0.136000, 0.000000, 0.000000, 0.000000, 0.000000, 0.000000, 0.000000, 1, 1154, 1154, 1154, 1154
-5.298307, 8.068000, -4.361517, -0.364687, -0.578642, -0.255953, -10.464776, 20.315699, -66.077171, 0.000000, 4.000000, 0.000000, 0.002435, 0.002701, 0.003337, 79936, 0.132000, 0.000000, 0.000000, 0.000000, 0.000000, 0.000000, 0.000000, 1, 1152, 1152, 1152, 1152
1.153341, 19.599611, 19.599611, -0.851393, 0.474337, 0.266185, -11.341713, 19.672609, -65.872551, 1.000000, 4.000000, 0.000000, 0.002465, 0.002694, 0.003326, 79936, 0.133000, 0.000000, 0.000000, 0.000000, 0.000000, 0.000000, 0.000000, 1, 1153, 1153, 1153, 1153
-10.999805, -19.599611, 10.964511, 0.640798, 0.673632, 0.239306, -10.713242, 19.789536, -64.367142, 0.000000, 4.000000, 0.000000, 0.002490, 0.002696, 0.003316, 79916, 0.137000, 0.000000, 0.000000, 0.000000, 0.000000, 0.000000, 0.000000, 1, 1154, 1154, 1154, 1154
14.967704, -8.936594, 1.754537, 0.328187, -0.530995, 0.293215, -10.581701, 15.112540, -64.527916, 0.000000, 3.000000, 0.000000, 0.002490, 0.002727, 0.003306, 79940, 0.143000, 0.000000, 0.000000, 0.000000, 0.000000, 0.000000, 0.000000, 1, 1157, 1157, 1157, 1157
3.696313, -10.079765, 19.599611, -0.160047, -0.537409, 0.135459, -11.721719, 17.947969, -64.016373, -1.000000, 3.000000, 0.000000, 0.002515, 0.002735, 0.003296, 79936, 0.143000, 0.000000, 0.000000, 0.000000, 0.000000, 0.000000, 0.000000, 1, 1157, 1157, 1157, 1157
17.017157, 8.067402, 2.461616, -0.292452, -0.021838, 0.352317, -11.356328, 17.977200, -63.665592, -1.000000, 2.000000, 0.000000, 0.002515, 0.002763, 0.003286, 79936, 0.144000, 0.000000, 0.000000, 0.000000, 0.000000, 0.000000, 0.000000, 1, 1157, 1157, 1157, 1157
-12.228520, 8.579466, 19.599611, -0.783587, 0.257632, 0.249844, -11.502485, 17.377958, -64.016373, 0.000000, 3.000000, 0.000000, 0.002523, 0.002780, 0.003276, 79936, 0.144000, 0.000000, 0.000000, 0.000000, 0.000000, 0.000000, 0.000000, 1, 1157, 1157, 1157, 1157
-10.216754, -2.357528, 0.118445, 0.934013, -0.032376, 0.381943, -10.917860, 19.365683, -63.782520, 0.000000, 3.000000, 0.000000, 0.002516, 0.002813, 0.003266, 79944, 0.143000, 0.000000, 0.000000, 0.000000, 0.000000, 0.000000, 0.000000, 1, 1157, 1157, 1157, 1157
18.095123, 9.131610, -9.471989, -0.959517, 0.381027, 0.596052, -12.467114, 19.906460, -64.220985, 0.000000, 3.000000, 0.000000, 0.002515, 0.002837, 0.003256, 79936, 0.143000, 0.000000, 0.000000, 0.000000, 0.000000, 0.000000, 0.000000, 1, 1157, 1157, 1157, 1157
-15.507285, -6.520442, 7.833503, -0.614683, -0.915840, 0.249538, -12.525578, 19.906460, -64.951767, 0.000000, 3.000000, 0.000000, 0.002516, 0.002859, 0.003247, 79940, 0.143000, 0.000000, 0.000000, 0.000000, 0.000000, 0.000000, 0.000000, 1, 1157, 1157, 1157, 1157
1.398007, 6.538388, -4.206582, 1.143540, 0.159589, 0.511141, -12.744811, 20.754166, -64.747147, 1.000000, 3.000000, 0.000000, 0.002560, 0.002853, 0.003237, 79936, 0.143000, 0.000000, 0.000000, 0.000000, 0.000000, 0.000000, 0.000000, 1, 1157, 1157, 1157, 1157
-7.784451, -19.599611, 19.532610, 0.601397, 0.281303, 0.190437, -13.007893, 22.420345, -63.782520, 0.000000, 3.000000, 0.000000, 0.002588, 0.002847, 0.003228, 79932, 0.143000, 0.000000, 0.000000, 0.000000, 0.000000, 0.000000, 0.000000, 1, 1157, 1157, 1157, 1157
-9.233305, -8.714661, -2.257030, 1.118494, -0.841161, -0.029627, -12.043262, 22.873428, -64.557144, -1.000000, 4.000000, 0.000000, 0.002596, 0.002857, 0.003218, 79932, 0.143000, 0.000000, 0.000000, 0.000000, 0.000000, 0.000000, 0.000000, 1, 1157, 1157, 1157, 1157
7.602596, 10.917253, 1.377668, 0.838107, 0.019853, -0.253662, -11.604795, 22.376499, -65.492546, 0.000000, 3.000000, 0.000000, 0.002622, 0.002864, 0.003209, 79956, 0.143000, 0.000000, 0.000000, 0.000000, 0.000000, 0.000000, 0.000000, 1, 1157, 1157, 1157, 1157
-7.406982, -7.401598, 18.746569, 0.157603, -0.345597, -0.425926, -10.947091, 23.282667, -66.237946, -1.000000, 4.000000, 0.000000, 0.002640, 0.002869, 0.003200, 79936, 0.145000, 0.000000, 0.000000, 0.000000, 0.000000, 0.000000, 0.000000, 1, 1158, 1158, 1158, 1158
-3.826123, -4.019344, 9.345767, 1.121701, -0.284052, -0.309251, -10.128617, 22.829582, -65.770248, -1.000000, 5.000000, 0.000000, 0.002654, 0.002874, 0.003191, 79940, 0.145000, 0.000000, 0.000000, 0.000000, 0.000000, 0.000000, 0.000000, 1, 1158, 1158, 1158, 1158
7.987242, 5.438288, -2.364707, -0.426384, 1.092380, -0.258549, -11.677872, 19.263372, -66.427948, -1.000000, 4.000000, 0.000000, 0.002658, 0.002888, 0.003182, 79936, 0.138000, 0.000000, 0.000000, 0.000000, 0.000000, 0.000000, 0.000000, 1, 1155, 1155, 1155, 1155
0.694517, 10.423735, 12.767503, -0.571464, -0.904233, -0.244041, -11.838644, 22.712656, -64.995613, 0.000000, 4.000000, 0.000000, 0.002687, 0.002883, 0.003172, 79916, 0.156000, 0.000000, 0.000000, 0.000000, 0.000000, 0.000000, 0.000000, 1, 1162, 1162, 1162, 1162
-10.071989, 19.599611, 18.905693, -1.365437, 0.318566, -0.115454, -11.926337, 22.654196, -65.024849, 1.000000, 4.000000, 0.000000, 0.002708, 0.002881, 0.003163, 79940, 0.163000, 0.000000, 0.000000, 0.000000, 0.000000, 0.000000, 0.000000, 1, 1165, 1165, 1165, 1165
-13.086348, 3.958925, 13.497913, -0.063530, -0.116064, 0.055436, -10.757089, 22.434959, -65.507164, 1.000000, 5.000000, 0.000000, 0.002705, 0.002908, 0.003154, 79928, 0.163000, 0.000000, 0.000000, 0.000000, 0.000000, 0.000000, 0.000000, 1, 1165, 1165, 1165, 1165
14.769099, 9.430114, -16.073189, -0.638965, 0.841161, 0.066126, -11.093247, 22.025724, -66.734871, 2.000000, 4.000000, 0.000000, 0.002708, 0.002923, 0.003145, 79936, 0.164000, 0.000000, 0.000000, 0.000000, 0.000000, 0.000000, 0.000000, 1, 1165, 1165, 1165, 1165
-11.401201, -15.272192, 5.728417, -1.404685, -0.370490, -0.075747, -11.648641, 21.777258, -66.954109, 1.000000, 5.000000, 0.000000, 0.002739, 0.002926, 0.003136, 79936, 0.164000, 0.000000, 0.000000, 0.000000, 0.000000, 0.000000, 0.000000, 1, 1165, 1165, 1165, 1165
-14.715261, 2.063809, -2.188236, -0.161879, -0.660193, -0.126144, -10.888629, 19.643379, -65.361008, 1.000000, 5.000000, 0.000000, 0.002733, 0.002953, 0.003127, 79936, 0.164000, 0.000000, 0.000000, 0.000000, 0.000000, 0.000000, 0.000000, 1, 1165, 1165, 1165, 1165
2.765505, 13.986049, 14.386847, -0.942718, 0.629649, -0.083230, -11.707104, 19.000292, -65.536392, 2.000000, 5.000000, 0.000000, 0.002756, 0.002949, 0.003118, 79960, 0.164000, 0.000000, 0.000000, 0.000000, 0.000000, 0.000000, 0.000000, 1, 1165, 1165, 1165, 1165
-4.705486, 0.677169, 8.069795, -0.731358, -0.087506, -0.089339, -12.028646, 17.816427, -63.943291, 2.000000, 6.000000, 0.000000, 0.002749, 0.002977, 0.003109, 79920, 0.164000, 0.000000, 0.000000, 0.000000, 0.000000, 0.000000, 0.000000, 1, 1165, 1165, 1165, 1165
-2.513660, 3.215355, -5.093123, -0.045357, -1.050994, -0.098044, -12.247881, 16.574100, -63.110203, 3.000000, 6.000000, 0.000000, 0.002769, 0.002977, 0.003100, 79936, 0.165000, 0.000000, 0.000000, 0.000000, 0.000000, 0.000000, 0.000000, 1, 1166, 1166, 1166, 1166
10.016356, 18.726231, 10.562517, -0.289245, 0.507934, 0.186314, -13.446361, 16.866413, -62.014030, 3.000000, 6.000000, 0.000000, 0.002788, 0.002980, 0.003091, 79940, 0.164000, 0.000000, 0.000000, 0.000000, 0.000000, 0.000000, 0.000000, 1, 1165, 1165, 1165, 1165
-0.286541, -6.344569, 4.403392, -0.229685, -0.276264, 0.189063, -13.636364, 15.711780, -61.385559, 2.000000, 6.000000, 0.000000, 0.002823, 0.002972, 0.003083, 79936, 0.165000, 0.000000, 0.000000, 0.000000, 0.000000, 0.000000, 0.000000, 1, 1166, 1166, 1166, 1166
-0.388235, -19.358534, 17.469400, 1.386511, -0.736856, 0.246179, -14.235603, 16.895645, -60.362465, 2.000000, 6.000000, 0.000000, 0.002846, 0.002966, 0.003075, 79944, 0.165000, 0.000000, 0.000000, 0.000000, 0.000000, 0.000000, 0.000000, 1, 1166, 1166, 1166, 1166
-7.456634, 1.346561, 9.471989, 1.075581, -0.701731, 0.359342, -15.273312, 18.064894, -60.742474, 2.000000, 6.000000, 0.000000, 0.002844, 0.002988, 0.003066, 79936, 0.165000, 0.000000, 0.000000, 0.000000, 0.000000, 0.000000, 0.000000, 1, 1166, 1166, 1166, 1166
19.599611, -6.778866, -4.110869, 0.898888, 0.355676, 0.365297, -16.325636, 19.117216, -60.917862, 2.000000, 5.000000, 0.000000, 0.002837, 0.003016, 0.003058, 79936, 0.165000, 0.000000, 0.000000, 0.000000, 0.000000, 0.000000, 0.000000, 1, 1166, 1166, 1166, 1166
-19.599611, 19.599611, -4.256233, 0.043677, -1.056339, 0.120340, -16.997953, 22.332651, -61.487873, 3.000000, 6.000000, 0.000000, 0.002854, 0.003020, 0.003049, 79936, 0.166000, 0.000000, 0.000000, 0.000000, 0.000000, 0.000000, 0.000000, 1, 1166, 1166, 1166, 1166
-2.767299, -19.599611, 19.599611, 1.773953, -0.091783, 0.295964, -16.603333, 23.618824, -61.429405, 2.000000, 6.000000, 0.000000, 0.002875, 0.003011, 0.003042, 79924, 0.160000, 0.000000, 0.000000, 0.000000, 0.000000, 0.000000, 0.000000, 1, 1164, 1164, 1164, 1164
-12.541980, 3.021537, -5.319843, 0.707687, -1.010829, 0.286649, -17.275650, 24.539608, -62.627888, 2.000000, 7.000000, 0.000000, 0.002872, 0.003032, 0.003033, 79940, 0.161000, 0.000000, 0.000000, 0.000000, 0.000000, 0.000000, 0.000000, 1, 1164, 1164, 1164, 1164
8.966505, 19.599611, 1.131805, -0.918741, 0.597121, 0.141721, -17.962584, 25.738087, -61.487873, 3.000000, 6.000000, 0.000000, 0.002891, 0.003031, 0.003025, 79936, 0.167000, 0.000000, 0.000000, 0.000000, 0.000000, 0.000000, 0.000000, 1, 1166, 1166, 1166, 1166
-15.770496, -2.596811, 8.758927, -0.420123, 0.596204, 0.210443, -17.684887, 26.205788, -61.560947, 3.000000, 7.000000, 0.000000, 0.002884, 0.003063, 0.003016, 79936, 0.167000, 0.000000, 0.000000, 0.000000, 0.000000, 0.000000, 0.000000, 1, 1166, 1166, 1166, 1166
-2.519642, -1.104288, -5.815755, -0.010690, -0.787711, 0.348040, -17.655655, 26.001171, -60.888630, 3.000000, 8.000000, 0.000000, 0.002877, 0.003084, 0.003009, 79936, 0.167000, 0.000000, 0.000000, 0.000000, 0.000000, 0.000000, 0.000000, 1, 1166, 1166, 1166, 1166
4.301099, 19.599611, 4.536792, -0.342695, 0.075595, 0.116828, -19.044138, 26.074249, -60.917862, 3.000000, 8.000000, 0.000000, 0.002904, 0.003079, 0.003000, 79936, 0.169000, 0.000000, 0.000000, 0.000000, 0.000000, 0.000000, 0.000000, 1, 1167, 1167, 1167, 1167
-2.174478, 5.264209, -1.185045, -0.676075, 0.392175, -0.056963, -19.380299, 26.878107, -60.420929, 4.000000, 8.000000, 0.000000, 0.002927, 0.003075, 0.002992, 79936, 0.169000, 0.000000, 0.000000, 0.000000, 0.000000, 0.000000, 0.000000, 1, 1167, 1167, 1167, 1167
19.599611, -13.594822, 13.275979, 1.332450, -2.056020, -2.143984, -19.511839, 25.475008, -58.067818, 4.000000, 7.000000, 0.000000, 0.002925, 0.003110, 0.002989, 79944, 0.169000, 0.000000, 0.000000, 0.000000, 0.000000, 0.000000, 0.000000, 1, 1167, 1167, 1167, 1167
-6.408577, -5.157730, -1.575076, 0.398284, -2.077858, -1.596038, -21.090324, 21.718796, -56.153172, 3.000000, 8.000000, 0.000000, 0.002931, 0.003116, 0.002985, 79940, 0.171000, 0.000000, 0.000000, 0.000000, 0.000000, 0.000000, 0.000000, 1, 1168, 1168, 1168, 1168
4.544569, -0.409173, 7.107880, 0.921948, 1.074359, 0.090713, -21.411867, 19.774920, -54.940075, 3.000000, 7.000000, 0.000000, 0.002923, 0.003140, 0.002977, 79936, 0.171000, 0.000000, 0.000000, 0.000000, 0.000000, 0.000000, 0.000000, 1, 1168, 1168, 1168, 1168
-19.425533, -15.231513, 8.794820, -0.091172, -0.878730, 0.767094, -21.163403, 20.944168, -54.779305, 3.000000, 7.000000, 0.000000, 0.002932, 0.003148, 0.002970, 79936, 0.171000, 0.000000, 0.000000, 0.000000, 0.000000, 0.000000, 0.000000, 1, 1168, 1168, 1168, 1168
-9.635897, -4.704289, -18.061026, 0.234725, -0.494648, 1.566717, -22.054955, 22.814966, -52.864658, 3.000000, 8.000000, 0.000000, 0.002926, 0.003167, 0.002962, 79936, 0.172000, 0.000000, 0.000000, 0.000000, 0.000000, 0.000000, 0.000000, 1, 1168, 1168, 1168, 1168
-3.826123, -2.699702, -0.393619, -0.155771, 1.310611, 1.641090, -22.171881, 24.641918, -54.443146, 2.000000, 9.000000, 0.000000, 0.002930, 0.003190, 0.002954, 79932, 0.171000, 0.000000, 0.000000, 0.000000, 0.000000, 0.000000, 0.000000, 1, 1168, 1168, 1168, 1168
-8.125427, -12.803994, -0.561715, -0.695928, 0.931111, 0.547641, -21.791874, 26.278866, -56.036247, 1.000000, 9.000000, 0.000000, 0.002955, 0.003194, 0.002947, 79936, 0.171000, 0.000000, 0.000000, 0.000000, 0.000000, 0.000000, 0.000000, 1, 1168, 1168, 1168, 1168
-17.324038, 1.622334, 11.947962, 0.316123, -0.014203, 0.017410, -21.119556, 25.021923, -57.395500, 1.000000, 10.000000, 0.000000, 0.002949, 0.003217, 0.002939, 79936, 0.174000, 0.000000, 0.000000, 0.000000, 0.000000, 0.000000, 0.000000, 1, 1169, 1169, 1169, 1169
5.020142, 9.771091, 7.844271, -0.069486, 2.776688, -0.335060, -19.818766, 24.773458, -59.880150, 2.000000, 10.000000, 0.000000, 0.002967, 0.003213, 0.002931, 79936, 0.175000, 0.000000, 0.000000, 0.000000, 0.000000, 0.000000, 0.000000, 1, 1170, 1170, 1170, 1170
0.009571, 10.763515, 0.296112, -0.648739, 0.676381, -0.865138, -17.714119, 23.311897, -60.479389, 3.000000, 10.000000, 0.000000, 0.002993, 0.003205, 0.002924, 79936, 0.169000, 0.000000, 0.000000, 0.000000, 0.000000, 0.000000, 0.000000, 1, 1167, 1167, 1167, 1167
-1.798206, 1.430908, 19.599611, 0.928362, -0.191201, -1.098488, -16.106401, 23.414207, -61.809414, 3.000000, 9.000000, 0.000000, 0.002992, 0.003221, 0.002920, 79936, 0.169000, 0.000000, 0.000000, 0.000000, 0.000000, 0.000000, 0.000000, 1, 1167, 1167, 1167, 1167
-1.767100, -4.171886, 4.934000, 1.199739, -0.360258, -0.650419, -14.674072, 21.821106, -62.627888, 3.000000, 9.000000, 0.000000, 0.003015, 0.003213, 0.002916, 79940, 0.176000, 0.000000, 0.000000, 0.000000, 0.000000, 0.000000, 0.000000, 1, 1170, 1170, 1170, 1170
9.624531, -2.871387, 0.464806, -0.283594, 0.342085, -0.396604, -15.667933, 21.894182, -62.817890, 2.000000, 8.000000, 0.000000, 0.003010, 0.003239, 0.002909, 79940, 0.176000, 0.000000, 0.000000, 0.000000, 0.000000, 0.000000, 0.000000, 1, 1170, 1170, 1170, 1170
-6.216553, -3.976871, 11.145767, 0.365297, -0.923017, -0.262061, -15.141771, 21.601871, -62.233265, 2.000000, 9.000000, 0.000000, 0.003020, 0.003242, 0.002904, 79936, 0.176000, 0.000000, 0.000000, 0.000000, 0.000000, 0.000000, 0.000000, 1, 1170, 1170, 1170, 1170
-2.554338, -19.599611, -1.206581, 1.318400, -0.845743, 0.466548, -16.004093, 21.163403, -61.458633, 1.000000, 9.000000, 0.000000, 0.003042, 0.003234, 0.002898, 79956, 0.176000, 0.000000, 0.000000, 0.000000, 0.000000, 0.000000, 0.000000, 1, 1170, 1170, 1170, 1170
14.623736, 13.670197, -10.429715, -0.515418, 0.094379, 0.928057, -18.021048, 22.259573, -60.406315, 2.000000, 8.000000, 0.000000, 0.003052, 0.003244, 0.002890, 79916, 0.177000, 0.000000, 0.000000, 0.000000, 0.000000, 0.000000, 0.000000, 1, 1170, 1170, 1170, 1170
-19.599611, -8.557930, 12.187244, -0.867276, -1.170112, 0.931111, -19.044138, 22.858814, -58.330898, 1.000000, 9.000000, 0.000000, 0.003053, 0.003257, 0.002883, 79944, 0.176000, 0.000000, 0.000000, 0.000000, 0.000000, 0.000000, 0.000000, 1, 1170, 1170, 1170, 1170
-16.386049, 5.032106, -2.344368, 0.356287, -0.808022, 0.909426, -19.774920, 24.524992, -55.802399, 1.000000, 10.000000, 0.000000, 0.003052, 0.003274, 0.002875, 79940, 0.176000, 0.000000, 0.000000, 0.000000, 0.000000, 0.000000, 0.000000, 1, 1170, 1170, 1170, 1170
11.960525, 14.062021, -7.926225, -1.392315, -0.481667, 0.587041, -22.084185, 25.431160, -54.340832, 2.000000, 9.000000, 0.000000, 0.003061, 0.003283, 0.002868, 79932, 0.178000, 0.000000, 0.000000, 0.000000, 0.000000, 0.000000, 0.000000, 1, 1171, 1171, 1171, 1171
-14.718252, 9.362517, 9.244072, -0.544281, 0.419512, -0.200517, -22.508039, 25.431160, -52.630814, 3.000000, 10.000000, 0.000000, 0.003067, 0.003294, 0.002861, 79936, 0.178000, 0.000000, 0.000000, 0.000000, 0.000000, 0.000000, 0.000000, 1, 1171, 1171, 1171, 1171
-2.488536, -5.739783, 3.232105, 0.752739, 0.083841, -0.661720, -22.244957, 24.481146, -52.499271, 2.000000, 10.000000, 0.000000, 0.003090, 0.003287, 0.002858, 79932, 0.177000, 0.000000, 0.000000, 0.000000, 0.000000, 0.000000, 0.000000, 1, 1170, 1170, 1170, 1170
1.941776, 13.054044, 3.628117, 0.107207, 0.591470, -0.747546, -21.411867, 23.326513, -55.086231, 3.000000, 10.000000, 0.000000, 0.003118, 0.003280, 0.002850, 79936, 0.178000, 0.000000, 0.000000, 0.000000, 0.000000, 0.000000, 0.000000, 1, 1171, 1171, 1171, 1171
-19.305294, 8.583055, 5.070391, 0.033903, 0.465785, -0.682642, -20.651855, 22.054955, -56.752415, 3.000000, 10.000000, 0.000000, 0.003119, 0.003299, 0.002843, 79936, 0.177000, 0.000000, 0.000000, 0.000000, 0.000000, 0.000000, 0.000000, 1, 1170, 1170, 1170, 1170
5.178068, -12.960126, 2.362314, 1.591457, 0.601397, -0.148440, -18.269512, 21.689564, -57.483189, 2.000000, 10.000000, 0.000000, 0.003132, 0.003298, 0.002838, 79936, 0.178000, 0.000000, 0.000000, 0.000000, 0.000000, 0.000000, 0.000000, 1, 1171, 1171, 1171, 1171
11.879767, 19.599611, 19.599611, 0.233809, -0.559858, 0.157451, -18.357204, 22.025724, -58.637829, 3.000000, 9.000000, 0.000000, 0.003147, 0.003308, 0.002831, 79936, 0.173000, 0.000000, 0.000000, 0.000000, 0.000000, 0.000000, 0.000000, 1, 1169, 1169, 1169, 1169
-19.599611, -6.638887, 15.486946, 0.175624, 0.454484, 0.561843, -18.810289, 22.449577, -59.251678, 3.000000, 10.000000, 0.000000, 0.003143, 0.003331, 0.002824, 79936, 0.172000, 0.000000, 0.000000, 0.000000, 0.000000, 0.000000, 0.000000, 1, 1168, 1168, 1168, 1168
0.993620, -14.486748, -6.571289, 0.803593, -0.514654, 0.607964, -18.941830, 23.472668, -59.090908, 2.000000, 10.000000, 0.000000, 0.003168, 0.003323, 0.002819, 79940, 0.174000, 0.000000, 0.000000, 0.000000, 0.000000, 0.000000, 0.000000, 1, 1169, 1169, 1169, 1169
-9.385847, 9.382257, 18.373888, 0.317497, -1.062753, 0.797332, -19.643379, 24.788074, -58.389359, 3.000000, 10.000000, 0.000000, 0.003191, 0.003316, 0.002812, 79936, 0.180000, 0.000000, 0.000000, 0.000000, 0.000000, 0.000000, 0.000000, 1, 1172, 1172, 1172, 1172
-13.082759, 5.930013, -3.102295, -0.877661, 0.086896, 0.242666, -20.608009, 25.796551, -56.986259, 3.000000, 11.000000, 0.000000, 0.003189, 0.003333, 0.002804, 79936, 0.180000, 0.000000, 0.000000, 0.000000, 0.000000, 0.000000, 0.000000, 1, 1172, 1172, 1172, 1172
-8.522038, -19.594227, 3.785445, 0.384387, 0.115912, -0.082009, -20.184156, 24.437300, -56.387020, 2.000000, 11.000000, 0.000000, 0.003213, 0.003328, 0.002801, 79936, 0.179000, 0.000000, 0.000000, 0.000000, 0.000000, 0.000000, 0.000000, 1, 1171, 1171, 1171, 1171
-0.308674, 10.969297, 0.495913, -0.849561, -0.839329, -0.446390, -20.754166, 23.881907, -55.685471, 3.000000, 11.000000, 0.000000, 0.003236, 0.003320, 0.002794, 79936, 0.180000, 0.000000, 0.000000, 0.000000, 0.000000, 0.000000, 0.000000, 1, 1172, 1172, 1172, 1172
0.553340, 19.599611, 19.296320, -0.791681, 0.829555, -0.464868, -20.914938, 23.823442, -56.664719, 4.000000, 11.000000, 0.000000, 0.003256, 0.003314, 0.002786, 79936, 0.181000, 0.000000, 0.000000, 0.000000, 0.000000, 0.000000, 0.000000, 1, 1172, 1172, 1172, 1172
1.500300, -15.679568, 9.962517, 0.077427, -0.346971, -0.331547, -20.330313, 22.800350, -55.393158, 3.000000, 11.000000, 0.000000, 0.003282, 0.003310, 0.002783, 79944, 0.181000, 0.000000, 0.000000, 0.000000, 0.000000, 0.000000, 0.000000, 1, 1172, 1172, 1172, 1172
-5.762516, -0.495913, 7.415358, 1.204321, -0.582765, -0.004734, -21.075708, 23.560364, -55.334698, 3.000000, 11.000000, 0.000000, 0.003273, 0.003324, 0.002778, 79940, 0.181000, 0.000000, 0.000000, 0.000000, 0.000000, 0.000000, 0.000000, 1, 1172, 1172, 1172, 1172
19.599611, 12.972689, 5.449654, 0.337198, 0.452193, 0.183107, -21.119556, 23.867290, -55.232388, 4.000000, 11.000000, 0.000000, 0.003277, 0.003340, 0.002771, 79936, 0.181000, 0.000000, 0.000000, 0.000000, 0.000000, 0.000000, 0.000000, 1, 1172, 1172, 1172, 1172
-10.842478, -3.323631, -8.108080, -0.078191, 0.129962, 0.417068, -21.017246, 23.984215, -55.407776, 4.000000, 12.000000, 0.000000, 0.003270, 0.003363, 0.002765, 79936, 0.182000, 0.000000, 0.000000, 0.000000, 0.000000, 0.000000, 0.000000, 1, 1172, 1172, 1172, 1172
-13.875381, -7.227521, 3.605386, 0.393703, -0.878577, 0.320552, -20.154926, 23.838060, -55.553932, 3.000000, 12.000000, 0.000000, 0.003268, 0.003376, 0.002759, 79932, 0.181000, 0.000000, 0.000000, 0.000000, 0.000000, 0.000000, 0.000000, 1, 1172, 1172, 1172, 1172
2.746960, -0.845863, -1.309472, 0.383776, 0.498924, 0.564134, -19.263372, 24.758842, -56.664719, 3.000000, 11.000000, 0.000000, 0.003261, 0.003399, 0.002752, 79936, 0.182000, 0.000000, 0.000000, 0.000000, 0.000000, 0.000000, 0.000000, 1, 1172, 1172, 1172, 1172
-10.231112, 3.824329, -13.590634, -0.428064, 0.336587, -0.115301, -20.359545, 24.174217, -57.687813, 3.000000, 12.000000, 0.000000, 0.003259, 0.003417, 0.002745, 79936, 0.182000, 0.000000, 0.000000, 0.000000, 0.000000, 0.000000, 0.000000, 1, 1172, 1172, 1172, 1172
-13.907682, 6.675377, 13.572688, 0.141568, -0.087201, -0.185245, -20.330313, 23.151125, -57.702427, 4.000000, 13.000000, 0.000000, 0.003264, 0.003425, 0.002739, 79936, 0.183000, 0.000000, 0.000000, 0.000000, 0.000000, 0.000000, 0.000000, 1, 1173, 1173, 1173, 1173
19.599611, 2.032703, 1.043869, 0.748310, 0.594219, -0.194255, -20.023384, 23.677288, -56.898571, 4.000000, 12.000000, 0.000000, 0.003258, 0.003448, 0.002732, 79936, 0.178000, 0.000000, 0.000000, 0.000000, 0.000000, 0.000000, 0.000000, 1, 1171, 1171, 1171, 1171
-0.936192, 15.572490, 7.654041, -1.273196, 0.756557, -0.368199, -19.628763, 23.940369, -57.921661, 5.000000, 12.000000, 0.000000, 0.003277, 0.003440, 0.002725, 79936, 0.183000, 0.000000, 0.000000, 0.000000, 0.000000, 0.000000, 0.000000, 1, 1173, 1173, 1173, 1173
-6.945765, -9.537193, 19.599611, 0.173028, 0.014203, -0.204029, -19.584917, 23.677288, -57.790119, 4.000000, 12.000000, 0.000000, 0.003302, 0.003432, 0.002725, 79936, 0.185000, 0.000000, 0.000000, 0.000000, 0.000000, 0.000000, 0.000000, 1, 1174, 1174, 1174, 1174
-6.000601, -2.355734, -3.277569, 0.643394, -0.096517, -0.075136, -19.467991, 23.414207, -57.205498, 4.000000, 13.000000, 0.000000, 0.003295, 0.003453, 0.002719, 79936, 0.192000, 0.000000, 0.000000, 0.000000, 0.000000, 0.000000, 0.000000, 1, 1176, 1176, 1176, 1176
19.597816, 19.557138, 9.738190, -0.867734, 0.054062, 0.038026, -19.599531, 24.086525, -57.687813, 4.000000, 12.000000, 0.000000, 0.003299, 0.003465, 0.002712, 79944, 0.193000, 0.000000, 0.000000, 0.000000, 0.000000, 0.000000, 0.000000, 1, 1177, 1177, 1177, 1177
-16.612770, -6.494121, 6.000003, 0.182496, 0.158367, 0.231365, -20.418007, 23.969599, -56.679333, 4.000000, 13.000000, 0.000000, 0.003296, 0.003484, 0.002707, 79932, 0.194000, 0.000000, 0.000000, 0.000000, 0.000000, 0.000000, 0.000000, 1, 1177, 1177, 1177, 1177
-10.706684, -19.599611, 12.418153, 0.388816, -1.399492, 0.264505, -20.739550, 24.291143, -57.746273, 3.000000, 13.000000, 0.000000, 0.003318, 0.003476, 0.002704, 79936, 0.195000, 0.000000, 0.000000, 0.000000, 0.000000, 0.000000, 0.000000, 1, 1178, 1178, 1178, 1178
-9.911072, -10.103095, 17.367704, 0.921490, -0.049633, 0.441045, -20.929552, 23.735750, -55.977787, 3.000000, 13.000000, 0.000000, 0.003332, 0.003471, 0.002702, 79936, 0.194000, 0.000000, 0.000000, 0.000000, 0.000000, 0.000000, 0.000000, 1, 1177, 1177, 1177, 1177
12.337393, 10.563116, 0.169292, -1.799914, 0.172569, -0.101709, -21.207249, 23.341127, -56.460102, 3.000000, 13.000000, 0.000000, 0.003333, 0.003482, 0.002696, 79944, 0.194000, 0.000000, 0.000000, 0.000000, 0.000000, 0.000000, 0.000000, 1, 1177, 1177, 1177, 1177
-12.395419, 8.170892, 16.567905, -0.377820, 0.862084, -0.397673, -21.119556, 23.136511, -55.539314, 4.000000, 13.000000, 0.000000, 0.003343, 0.003486, 0.002689, 79940, 0.195000, 0.000000, 0.000000, 0.000000, 0.000000, 0.000000, 0.000000, 1, 1178, 1178, 1178, 1178
1.353141, -19.503899, 19.599611, 0.585514, -0.862847, -0.350331, -20.827244, 22.420345, -56.533176, 3.000000, 13.000000, 0.000000, 0.003362, 0.003485, 0.002688, 79936, 0.194000, 0.000000, 0.000000, 0.000000, 0.000000, 0.000000, 0.000000, 1, 1177, 1177, 1177, 1177
-11.093125, -12.198012, 18.428324, 0.946688, -1.046412, 0.204945, -20.841860, 21.441099, -56.518562, 2.000000, 13.000000, 0.000000, 0.003377, 0.003479, 0.002686, 79936, 0.196000, 0.000000, 0.000000, 0.000000, 0.000000, 0.000000, 0.000000, 1, 1178, 1178, 1178, 1178
8.321639, 7.298109, -0.577867, 0.091630, -0.426078, 0.500146, -21.104940, 22.464191, -54.545456, 3.000000, 12.000000, 0.000000, 0.003386, 0.003492, 0.002680, 79932, 0.197000, 0.000000, 0.000000, 0.000000, 0.000000, 0.000000, 0.000000, 1, 1178, 1178, 1178, 1178
-8.213364, 19.599611, 19.599611, -1.146594, 1.087798, 0.237474, -21.938030, 23.969599, -54.793919, 4.000000, 12.000000, 0.000000, 0.003405, 0.003484, 0.002674, 79936, 0.198000, 0.000000, 0.000000, 0.000000, 0.000000, 0.000000, 0.000000, 1, 1179, 1179, 1179, 1179
-3.023331, -3.055635, -0.292523, -0.666912, 0.140194, -0.028405, -22.142649, 23.691902, -55.188541, 3.000000, 13.000000, 0.000000, 0.003417, 0.003492, 0.002670, 79932, 0.202000, 0.000000, 0.000000, 0.000000, 0.000000, 0.000000, 0.000000, 1, 1180, 1180, 1180, 1180
-10.124631, 3.110071, 12.074781, 1.034806, 0.034972, -0.079107, -21.601871, 23.925753, -56.094711, 3.000000, 14.000000, 0.000000, 0.003420, 0.003501, 0.002664, 79944, 0.208000, 0.000000, 0.000000, 0.000000, 0.000000, 0.000000, 0.000000, 1, 1183, 1183, 1183, 1183
2.588436, -8.895916, 7.269993, 0.377515, -0.513432, -0.130420, -20.666471, 24.349606, -55.831631, 3.000000, 13.000000, 0.000000, 0.003437, 0.003504, 0.002661, 79932, 0.202000, 0.000000, 0.000000, 0.000000, 0.000000, 0.000000, 0.000000, 1, 1180, 1180, 1180, 1180
-0.204586, -3.427719, 18.549162, 0.591318, -0.074984, 0.508851, -20.593395, 24.261911, -57.380886, 2.000000, 12.000000, 0.000000, 0.003433, 0.003520, 0.002658, 79940, 0.204000, 0.000000, 0.000000, 0.000000, 0.000000, 0.000000, 0.000000, 1, 1181, 1181, 1181, 1181
-5.502894, 8.748160, -1.458425, -0.938136, 0.757626, -0.113774, -21.280327, 23.838060, -56.913185, 3.000000, 13.000000, 0.000000, 0.003448, 0.003520, 0.002652, 79932, 0.206000, 0.000000, 0.000000, 0.000000, 0.000000, 0.000000, 0.000000, 1, 1182, 1182, 1182, 1182
-15.229718, 10.709077, 19.554745, -1.087187, -0.052076, -0.231671, -21.148787, 25.138849, -56.489330, 4.000000, 13.000000, 0.000000, 0.003454, 0.003521, 0.002646, 79944, 0.210000, 0.000000, 0.000000, 0.000000, 0.000000, 0.000000, 0.000000, 1, 1184, 1184, 1184, 1184
19.599611, -19.599611, 11.441282, 0.062766, -0.504269, -0.181732, -21.017246, 22.259573, -54.267757, 3.000000, 12.000000, 0.000000, 0.003459, 0.003537, 0.002642, 79932, 0.210000, 0.000000, 0.000000, 0.000000, 0.000000, 0.000000, 0.000000, 1, 1184, 1184, 1184, 1184
-19.599611, -10.262815, 6.065805, 1.306335, -0.471435, 0.008247, -21.894182, 21.660334, -55.860859, 3.000000, 13.000000, 0.000000, 0.003455, 0.003549, 0.002638, 79936, 0.212000, 0.000000, 0.000000, 0.000000, 0.000000, 0.000000, 0.000000, 1, 1184, 1184, 1184, 1184
-15.144773, -2.779862, 2.718845, 0.115606, -1.079704, 0.217926, -21.411867, 22.318035, -55.305470, 3.000000, 14.000000, 0.000000, 0.003447, 0.003564, 0.002632, 79936, 0.212000, 0.000000, 0.000000, 0.000000, 0.000000, 0.000000, 0.000000, 1, 1184, 1184, 1184, 1184
19.599611, 3.912863, 1.849054, 0.276111, 0.572992, 0.257632, -22.040339, 22.946507, -55.860859, 3.000000, 13.000000, 0.000000, 0.003442, 0.003584, 0.002626, 79944, 0.213000, 0.000000, 0.000000, 0.000000, 0.000000, 0.000000, 0.000000, 1, 1185, 1185, 1185, 1185
10.810772, 18.060427, 19.599611, 0.037721, 0.435089, 0.145844, -20.944168, 22.829582, -57.132416, 3.000000, 13.000000, 0.000000, 0.003453, 0.003590, 0.002620, 79936, 0.214000, 0.000000, 0.000000, 0.000000, 0.000000, 0.000000, 0.000000, 1, 1185, 1185, 1185, 1185
-1.996810, 9.774680, -1.926222, -0.335976, 0.050244, 0.231365, -21.704180, 23.078047, -54.969303, 4.000000, 13.000000, 0.000000, 0.003477, 0.003582, 0.002614, 79936, 0.213000, 0.000000, 0.000000, 0.000000, 0.000000, 0.000000, 0.000000, 1, 1185, 1185, 1185, 1185
-18.632912, 16.657038, 9.961321, -0.762971, 0.673479, 0.247859, -21.777258, 23.355743, -55.290848, 5.000000, 13.000000, 0.000000, 0.003485, 0.003587, 0.002608, 79940, 0.214000, 0.000000, 0.000000, 0.000000, 0.000000, 0.000000, 0.000000, 1, 1185, 1185, 1185, 1185
-1.488934, 19.599611, 14.526229, -1.460884, 0.455858, -0.181732, -22.318035, 22.727274, -54.603916, 6.000000, 13.000000, 0.000000, 0.003501, 0.003579, 0.002603, 79936, 0.215000, 0.000000, 0.000000, 0.000000, 0.000000, 0.000000, 0.000000, 1, 1186, 1186, 1186, 1186
11.256436, -18.129221, 1.694717, 0.167988, 1.032820, -0.173486, -21.938030, 22.961123, -54.910843, 5.000000, 13.000000, 0.000000, 0.003514, 0.003580, 0.002599, 79928, 0.216000, 0.000000, 0.000000, 0.000000, 0.000000, 0.000000, 0.000000, 1, 1186, 1186, 1186, 1186
-19.599611, -7.455437, 13.392031, 0.039706, 0.552528, 0.093462, -22.318035, 22.434959, -55.743935, 5.000000, 13.000000, 0.000000, 0.003512, 0.003597, 0.002595, 79940, 0.216000, 0.000000, 0.000000, 0.000000, 0.000000, 0.000000, 0.000000, 1, 1186, 1186, 1186, 1186
-14.277374, -6.255436, 0.223729, -1.191340, 0.240986, -0.110108, -21.280327, 21.821106, -55.758549, 4.000000, 14.000000, 0.000000, 0.003511, 0.003616, 0.002590, 79936, 0.216000, 0.000000, 0.000000, 0.000000, 0.000000, 0.000000, 0.000000, 1, 1186, 1186, 1186, 1186
-9.795020, -4.840082, -2.782254, -0.130267, 0.789849, -0.363770, -20.301081, 21.338789, -56.957031, 4.000000, 15.000000, 0.000000, 0.003508, 0.003637, 0.002586, 79936, 0.211000, 0.000000, 0.000000, 0.000000, 0.000000, 0.000000, 0.000000, 1, 1184, 1184, 1184, 1184
-3.236293, -18.833906, 19.599611, 0.724944, 0.232434, -0.113926, -20.154926, 22.128033, -57.117802, 3.000000, 15.000000, 0.000000, 0.003530, 0.003630, 0.002586, 79940, 0.211000, 0.000000, 0.000000, 0.000000, 0.000000, 0.000000, 0.000000, 1, 1184, 1184, 1184, 1184
-9.626925, -16.548162, 1.191028, 0.685391, -0.359800, 0.037568, -20.476469, 22.011106, -57.483189, 2.000000, 15.000000, 0.000000, 0.003545, 0.003627, 0.002584, 79936, 0.211000, 0.000000, 0.000000, 0.000000, 0.000000, 0.000000, 0.000000, 1, 1184, 1184, 1184, 1184
-19.599611, -7.944171, 19.599611, 0.008858, 0.060781, 0.041233, -20.520315, 21.353405, -55.860859, 2.000000, 16.000000, 0.000000, 0.003544, 0.003637, 0.002581, 79936, 0.217000, 0.000000, 0.000000, 0.000000, 0.000000, 0.000000, 0.000000, 1, 1186, 1186, 1186, 1186
-12.034701, 0.958924, 7.131808, 0.302684, -1.207833, -0.135918, -21.762642, 22.274189, -54.457760, 2.000000, 17.000000, 0.000000, 0.003537, 0.003647, 0.002576, 79936, 0.218000, 0.000000, 0.000000, 0.000000, 0.000000, 0.000000, 0.000000, 1, 1187, 1187, 1187, 1187
-1.312463, -19.560129, -2.853441, 1.403616, -0.645379, 0.172722, -22.698042, 22.829582, -54.720844, 1.000000, 17.000000, 0.000000, 0.003556, 0.003639, 0.002576, 79936, 0.217000, 0.000000, 0.000000, 0.000000, 0.000000, 0.000000, 0.000000, 1, 1186, 1186, 1186, 1186
-19.599611, -0.648455, 19.599611, 0.754571, 0.035583, 0.475406, -21.674950, 23.151125, -56.591640, 1.000000, 17.000000, 0.000000, 0.003549, 0.003651, 0.002571, 79936, 0.219000, 0.000000, 0.000000, 0.000000, 0.000000, 0.000000, 0.000000, 1, 1187, 1187, 1187, 1187
0.694517, 10.048061, 4.132405, -0.561385, -0.384234, 0.048258, -21.441099, 22.581118, -56.211632, 2.000000, 17.000000, 0.000000, 0.003571, 0.003646, 0.002566, 79936, 0.221000, 0.000000, 0.000000, 0.000000, 0.000000, 0.000000, 0.000000, 1, 1188, 1188, 1188, 1188
19.599611, -10.214361, -9.007781, 0.795041, 0.446848, -0.035888, -19.994154, 22.171881, -57.103188, 2.000000, 16.000000, 0.000000, 0.003567, 0.003662, 0.002562, 79948, 0.223000, 0.000000, 0.000000, 0.000000, 0.000000, 0.000000, 0.000000, 1, 1189, 1189, 1189, 1189
-9.553344, -18.663418, 19.599611, 0.878119, -0.667065, 0.160658, -20.330313, 20.885706, -56.942413, 1.000000, 16.000000, 0.000000, 0.003586, 0.003654, 0.002563, 79940, 0.224000, 0.000000, 0.000000, 0.000000, 0.000000, 0.000000, 0.000000, 1, 1189, 1189, 1189, 1189
-1.520639, 9.820743, 1.724029, -0.156534, -0.541227, 0.290619, -20.242619, 20.944168, -57.249344, 2.000000, 16.000000, 0.000000, 0.003613, 0.003646, 0.002559, 79932, 0.227000, 0.000000, 0.000000, 0.000000, 0.000000, 0.000000, 0.000000, 1, 1190, 1190, 1190, 1190
6.683752, 0.607179, 18.695124, 0.677297, -0.244957, -0.145233, -19.994154, 21.499561, -56.971645, 2.000000, 15.000000, 0.000000, 0.003606, 0.003671, 0.002553, 79940, 0.228000, 0.000000, 0.000000, 0.000000, 0.000000, 0.000000, 0.000000, 1, 1191, 1191, 1191, 1191
15.293726, 10.466805, 9.574881, 0.553444, -0.601244, -0.021991, -21.207249, 21.762642, -55.977787, 3.000000, 14.000000, 0.000000, 0.003609, 0.003689, 0.002548, 79932, 0.228000, 0.000000, 0.000000, 0.000000, 0.000000, 0.000000, 0.000000, 1, 1191, 1191, 1191, 1191
14.169697, -6.770492, -12.775878, 1.056644, -0.575588, 0.442114, -21.368021, 21.528793, -55.305470, 3.000000, 14.000000, 0.000000, 0.003603, 0.003712, 0.002543, 79928, 0.229000, 0.000000, 0.000000, 0.000000, 0.000000, 0.000000, 0.000000, 1, 1191, 1191, 1191, 1191
5.894121, 18.251852, 18.355942, 0.574519, 0.091783, 0.099724, -23.121895, 23.560364, -55.597775, 3.000000, 13.000000, 0.000000, 0.003621, 0.003713, 0.002538, 79936, 0.230000, 0.000000, 0.000000, 0.000000, 0.000000, 0.000000, 0.000000, 1, 1192, 1192, 1192, 1192
7.074979, 13.933406, 1.049253, -0.413708, -0.712116, -0.077733, -22.639578, 23.677288, -54.633148, 4.000000, 13.000000, 0.000000, 0.003637, 0.003715, 0.002533, 79940, 0.230000, 0.000000, 0.000000, 0.000000, 0.000000, 0.000000, 0.000000, 1, 1192, 1192, 1192, 1192
4.802993, -1.542772, -0.087338, -0.247248, -0.223577, 0.694248, -22.975739, 23.180357, -55.451618, 4.000000, 12.000000, 0.000000, 0.003630, 0.003738, 0.002527, 79936, 0.225000, 0.000000, 0.000000, 0.000000, 0.000000, 0.000000, 0.000000, 1, 1190, 1190, 1190, 1190
19.599611, -11.861820, 3.000600, 0.172417, 1.029461, 0.031154, -21.601871, 22.405729, -56.226246, 4.000000, 11.000000, 0.000000, 0.003628, 0.003751, 0.002522, 79940, 0.226000, 0.000000, 0.000000, 0.000000, 0.000000, 0.000000, 0.000000, 1, 1190, 1190, 1190, 1190
16.670197, 19.599611, 6.518049, 0.379805, 0.191659, -0.155007, -21.031862, 22.025724, -56.094711, 4.000000, 10.000000, 0.000000, 0.003639, 0.003757, 0.002517, 79936, 0.225000, 0.000000, 0.000000, 0.000000, 0.000000, 0.000000, 0.000000, 1, 1190, 1190, 1190, 1190
-4.908875, 16.963917, -0.710668, -0.231518, -0.201127, 0.108276, -20.885706, 22.288803, -56.752415, 5.000000, 10.000000, 0.000000, 0.003661, 0.003750, 0.002512, 79936, 0.231000, 0.000000, 0.000000, 0.000000, 0.000000, 0.000000, 0.000000, 1, 1192, 1192, 1192, 1192
11.232507, 16.807188, 18.071793, -0.030391, 0.854906, 0.007941, -20.491085, 20.695704, -55.992401, 6.000000, 10.000000, 0.000000, 0.003669, 0.003754, 0.002506, 79936, 0.232000, 0.000000, 0.000000, 0.000000, 0.000000, 0.000000, 0.000000, 1, 1192, 1192, 1192, 1192
11.196018, 19.599611, 4.884947, 0.431729, -0.014355, -0.167072, -20.520315, 21.353405, -56.562405, 7.000000, 9.000000, 0.000000, 0.003685, 0.003756, 0.002501, 79936, 0.232000, 0.000000, 0.000000, 0.000000, 0.000000, 0.000000, 0.000000, 1, 1192, 1192, 1192, 1192
19.569101, -5.309674, 12.434303, 0.962571, -0.516487, 0.189216, -20.403391, 22.288803, -57.614731, 6.000000, 8.000000, 0.000000, 0.003678, 0.003781, 0.002495, 79936, 0.233000, 0.000000, 0.000000, 0.000000, 0.000000, 0.000000, 0.000000, 1, 1193, 1193, 1193, 1193
6.801001, -8.231310, 3.656831, 0.480598, 0.388205, 0.611323, -21.616486, 23.516516, -57.907043, 6.000000, 8.000000, 0.000000, 0.003684, 0.003787, 0.002490, 79936, 0.233000, 0.000000, 0.000000, 0.000000, 0.000000, 0.000000, 0.000000, 1, 1193, 1193, 1193, 1193
-0.853639, 9.749557, 19.599611, -0.703869, -0.797943, 0.035125, -21.148787, 22.668810, -57.205498, 7.000000, 7.000000, 0.000000, 0.003697, 0.003784, 0.002485, 79944, 0.234000, 0.000000, 0.000000, 0.000000, 0.000000, 0.000000, 0.000000, 1, 1193, 1193, 1193, 1193
-5.869594, -8.690732, 7.353742, 0.286801, -1.350470, 0.025809, -21.499561, 22.201111, -55.305470, 6.000000, 8.000000, 0.000000, 0.003714, 0.003778, 0.002481, 79944, 0.234000, 0.000000, 0.000000, 0.000000, 0.000000, 0.000000, 0.000000, 1, 1193, 1193, 1193, 1193
2.845066, -5.510671, -0.232104, -0.194255, -0.542296, 0.389885, -21.426483, 21.338789, -55.875473, 5.000000, 7.000000, 0.000000, 0.003730, 0.003780, 0.002476, 79928, 0.235000, 0.000000, 0.000000, 0.000000, 0.000000, 0.000000, 0.000000, 1, 1194, 1194, 1194, 1194
3.999603, -14.624333, 16.584654, 1.137278, -0.178831, -0.152411, -21.455713, 21.353405, -56.606258, 4.000000, 7.000000, 0.000000, 0.003743, 0.003779, 0.002472, 79940, 0.236000, 0.000000, 0.000000, 0.000000, 0.000000, 0.000000, 0.000000, 1, 1194, 1194, 1194, 1194
-1.247259, -8.164908, 12.459428, 1.089631, -0.696692, -0.164781, -20.593395, 21.382637, -56.986259, 3.000000, 7.000000, 0.000000, 0.003760, 0.003772, 0.002468, 79940, 0.235000, 0.000000, 0.000000, 0.000000, 0.000000, 0.000000, 0.000000, 1, 1194, 1194, 1194, 1194
-7.285547, -6.955935, -0.031705, 0.542754, -0.793972, 0.247095, -20.900322, 22.361881, -57.351650, 3.000000, 7.000000, 0.000000, 0.003764, 0.003776, 0.002463, 79928, 0.237000, 0.000000, 0.000000, 0.000000, 0.000000, 0.000000, 0.000000, 1, 1194, 1194, 1194, 1194
-6.884749, -6.801599, -9.516854, 1.185537, -0.457843, -0.238848, -20.900322, 21.923414, -58.199356, 2.000000, 8.000000, 0.000000, 0.003764, 0.003785, 0.002459, 79936, 0.237000, 0.000000, 0.000000, 0.000000, 0.000000, 0.000000, 0.000000, 1, 1194, 1194, 1194, 1194
-19.599611, -9.107083, 14.149958, 0.658360, -0.449902, 0.176693, -21.674950, 21.850336, -56.109325, 2.000000, 9.000000, 0.000000, 0.003761, 0.003797, 0.002454, 79936, 0.239000, 0.000000, 0.000000, 0.000000, 0.000000, 0.000000, 0.000000, 1, 1195, 1195, 1195, 1195
-16.555342, 6.721439, 4.981857, -0.705397, -0.097738, 0.020464, -22.595732, 24.203449, -54.837769, 2.000000, 9.000000, 0.000000, 0.003758, 0.003810, 0.002449, 79940, 0.235000, 0.000000, 0.000000, 0.000000, 0.000000, 0.000000, 0.000000, 1, 1194, 1194, 1194, 1194
-2.047658, -11.803197, 17.527426, -0.134390, -0.088423, 0.008247, -21.835720, 22.011106, -55.758549, 1.000000, 9.000000, 0.000000, 0.003779, 0.003803, 0.002446, 79936, 0.238000, 0.000000, 0.000000, 0.000000, 0.000000, 0.000000, 0.000000, 1, 1195, 1195, 1195, 1195
-18.553349, -19.599611, 11.534602, 0.898277, 0.137445, 0.087048, -21.616486, 21.835720, -56.825489, 1.000000, 10.000000, 0.000000, 0.003786, 0.003807, 0.002442, 79936, 0.240000, 0.000000, 0.000000, 0.000000, 0.000000, 0.000000, 0.000000, 1, 1196, 1196, 1196, 1196
-12.991233, -2.132603, 19.421345, -0.189979, 0.198531, -0.149357, -21.353405, 23.209589, -57.717045, 1.000000, 10.000000, 0.000000, 0.003778, 0.003822, 0.002439, 79936, 0.247000, 0.000000, 0.000000, 0.000000, 0.000000, 0.000000, 0.000000, 1, 1198, 1198, 1198, 1198
4.582255, -18.561724, 19.599611, -0.164017, -0.534965, -0.193644, -21.411867, 22.478807, -57.527042, 0.000000, 10.000000, 0.000000, 0.003795, 0.003824, 0.002436, 79936, 0.247000, 0.000000, 0.000000, 0.000000, 0.000000, 0.000000, 0.000000, 1, 1198, 1198, 1198, 1198
-2.528017, -5.514858, -13.725230, 0.150273, 0.451429, 0.034208, -21.441099, 22.069571, -58.257820, -1.000000, 11.000000, 0.000000, 0.003802, 0.003828, 0.002433, 79936, 0.249000, 0.000000, 0.000000, 0.000000, 0.000000, 0.000000, 0.000000, 1, 1199, 1199, 1199, 1199
4.747360, 11.349158, 3.655036, -0.518625, 1.370629, -0.087659, -22.084185, 21.587255, -55.027771, 0.000000, 10.000000, 0.000000, 0.003817, 0.003823, 0.002428, 79936, 0.249000, 0.000000, 0.000000, 0.000000, 0.000000, 0.000000, 0.000000, 1, 1199, 1199, 1199, 1199
-3.217150, 19.599611, 10.519446, 0.358578, 0.457385, 0.113621, -22.186495, 21.119556, -54.706226, 1.000000, 10.000000, 0.000000, 0.003842, 0.003815, 0.002423, 79936, 0.250000, 0.000000, 0.000000, 0.000000, 0.000000, 0.000000, 0.000000, 1, 1200, 1200, 1200, 1200
5.800801, 19.599611, 18.812971, -0.791223, 0.637591, 0.253204, -22.098803, 21.938030, -56.489330, 2.000000, 10.000000, 0.000000, 0.003855, 0.003812, 0.002418, 79948, 0.252000, 0.000000, 0.000000, 0.000000, 0.000000, 0.000000, 0.000000, 1, 1200, 1200, 1200, 1200
2.504089, -0.016750, 19.406389, 0.208000, -0.494343, -0.037415, -20.140310, 22.084185, -58.462437, 2.000000, 9.000000, 0.000000, 0.003847, 0.003835, 0.002414, 79940, 0.254000, 0.000000, 0.000000, 0.000000, 0.000000, 0.000000, 0.000000, 1, 1201, 1201, 1201, 1201
-8.955737, -16.992033, -0.827318, 1.235475, -1.113455, 0.250149, -20.052616, 23.428822, -59.953232, 1.000000, 9.000000, 0.000000, 0.003858, 0.003831, 0.002410, 79936, 0.253000, 0.000000, 0.000000, 0.000000, 0.000000, 0.000000, 0.000000, 1, 1201, 1201, 1201, 1201
-0.738784, -5.738587, 7.781459, 0.394619, -0.002749, -0.183565, -20.096462, 23.121895, -59.763229, 0.000000, 9.000000, 0.000000, 0.003877, 0.003824, 0.002407, 79936, 0.254000, 0.000000, 0.000000, 0.000000, 0.000000, 0.000000, 0.000000, 1, 1201, 1201, 1201, 1201
-16.488941, -9.032906, 8.927024, 0.532522, -0.191506, -0.021075, -20.432623, 22.230343, -58.287048, 0.000000, 10.000000, 0.000000, 0.003875, 0.003836, 0.002403, 79932, 0.254000, 0.000000, 0.000000, 0.000000, 0.000000, 0.000000, 0.000000, 1, 1201, 1201, 1201, 1201
-7.447062, 9.722636, 8.149356, -0.519999, 0.855669, 0.090103, -22.361881, 23.487286, -56.547791, 1.000000, 10.000000, 0.000000, 0.003889, 0.003835, 0.002398, 79936, 0.256000, 0.000000, 0.000000, 0.000000, 0.000000, 0.000000, 0.000000, 1, 1202, 1202, 1202, 1202
13.774881, 6.478567, -1.571486, -0.562607, 0.802524, -0.049327, -22.434959, 20.827244, -55.846245, 1.000000, 10.000000, 0.000000, 0.003886, 0.003847, 0.002393, 79936, 0.256000, 0.000000, 0.000000, 0.000000, 0.000000, 0.000000, 0.000000, 1, 1202, 1202, 1202, 1202
-2.890530, 16.652849, -0.426521, -0.449291, 0.709673, 0.505796, -22.040339, 21.046478, -56.255486, 2.000000, 10.000000, 0.000000, 0.003906, 0.003840, 0.002389, 79936, 0.250000, 0.000000, 0.000000, 0.000000, 0.000000, 0.000000, 0.000000, 1, 1200, 1200, 1200, 1200
5.249255, 8.250452, -6.781857, 0.169668, 0.519541, 0.041539, -20.739550, 21.850336, -58.330898, 3.000000, 9.000000, 0.000000, 0.003923, 0.003837, 0.002384, 79936, 0.250000, 0.000000, 0.000000, 0.000000, 0.000000, 0.000000, 0.000000, 1, 1200, 1200, 1200, 1200
-3.748357, -4.844868, -1.779064, 0.914771, -0.177762, 0.347277, -20.447237, 21.309559, -60.070156, 2.000000, 10.000000, 0.000000, 0.003929, 0.003840, 0.002380, 79936, 0.251000, 0.000000, 0.000000, 0.000000, 0.000000, 0.000000, 0.000000, 1, 1200, 1200, 1200, 1200
12.258430, 11.422139, 5.497510, 0.212276, 0.493579, -0.167530, -18.693365, 20.768782, -62.788658, 3.000000, 9.000000, 0.000000, 0.003935, 0.003848, 0.002375, 79936, 0.252000, 0.000000, 0.000000, 0.000000, 0.000000, 0.000000, 0.000000, 1, 1200, 1200, 1200, 1200
3.217150, -10.715059, 6.334400, 1.098336, -0.423177, -0.101709, -18.517977, 20.198772, -61.721718, 2.000000, 9.000000, 0.000000, 0.003947, 0.003846, 0.002371, 79940, 0.258000, 0.000000, 0.000000, 0.000000, 0.000000, 0.000000, 0.000000, 1, 1203, 1203, 1203, 1203
-11.447264, -1.949552, 5.611767, 0.284510, -0.576199, 0.047953, -18.664133, 20.622625, -60.552471, 2.000000, 10.000000, 0.000000, 0.003939, 0.003863, 0.002367, 79936, 0.259000, 0.000000, 0.000000, 0.000000, 0.000000, 0.000000, 0.000000, 1, 1203, 1203, 1203, 1203
-6.215356, -3.794419, 14.281562, 0.823294, -1.213484, -0.030849, -20.008770, 20.403391, -60.567085, 1.000000, 10.000000, 0.000000, 0.003942, 0.003861, 0.002365, 79936, 0.259000, 0.000000, 0.000000, 0.000000, 0.000000, 0.000000, 0.000000, 1, 1203, 1203, 1203, 1203
-17.421545, -6.854240, 1.515255, 0.530842, -0.834442, 0.238390, -19.774920, 21.061092, -58.988602, 1.000000, 11.000000, 0.000000, 0.003937, 0.003873, 0.002360, 79936, 0.259000, 0.000000, 0.000000, 0.000000, 0.000000, 0.000000, 0.000000, 1, 1203, 1203, 1203, 1203
-4.543971, -8.107482, 19.339392, 0.570548, -0.486249, -0.141721, -20.286467, 20.286467, -59.280914, 0.000000, 11.000000, 0.000000, 0.003953, 0.003866, 0.002360, 79936, 0.260000, 0.000000, 0.000000, 0.000000, 0.000000, 0.000000, 0.000000, 1, 1204, 1204, 1204, 1204
-19.599611, -8.219346, 5.055436, 0.458302, -0.800692, 0.237779, -20.038002, 21.397253, -57.921661, 0.000000, 11.000000, 0.000000, 0.003948, 0.003878, 0.002355, 79944, 0.260000, 0.000000, 0.000000, 0.000000, 0.000000, 0.000000, 0.000000, 1, 1204, 1204, 1204, 1204
-12.532409, -5.082355, -7.402795, -0.362396, 0.471893, -0.049938, -19.891844, 21.148787, -59.456299, 0.000000, 12.000000, 0.000000, 0.003943, 0.003897, 0.002351, 79936, 0.260000, 0.000000, 0.000000, 0.000000, 0.000000, 0.000000, 0.000000, 1, 1204, 1204, 1204, 1204
-9.753744, -0.360120, -16.479969, 0.197920, 0.427148, -0.021380, -20.359545, 21.908798, -60.040920, 0.000000, 13.000000, 0.000000, 0.003935, 0.003917, 0.002347, 79936, 0.261000, 0.000000, 0.000000, 0.000000, 0.000000, 0.000000, 0.000000, 1, 1204, 1204, 1204, 1204
2.450250, 5.257630, -0.872184, -0.657902, 1.770440, -0.077427, -22.128033, 20.929552, -61.575562, 0.000000, 13.000000, 0.000000, 0.003949, 0.003911, 0.002342, 79940, 0.260000, 0.000000, 0.000000, 0.000000, 0.000000, 0.000000, 0.000000, 1, 1204, 1204, 1204, 1204
13.463216, 2.825923, 10.160523, -0.449597, 0.987311, -0.231823, -18.839520, 20.125694, -61.473255, 1.000000, 12.000000, 0.000000, 0.003942, 0.003926, 0.002338, 79928, 0.260000, 0.000000, 0.000000, 0.000000, 0.000000, 0.000000, 0.000000, 1, 1204, 1204, 1204, 1204
-2.162513, 19.150957, 19.599611, -0.454026, 0.386220, 0.384845, -17.831043, 19.190294, -62.920200, 2.000000, 12.000000, 0.000000, 0.003962, 0.003919, 0.002334, 79936, 0.260000, 0.000000, 0.000000, 0.000000, 0.000000, 0.000000, 0.000000, 1, 1204, 1204, 1204, 1204
7.840682, 13.104892, 14.468203, 0.026114, -0.653015, -0.079565, -17.801813, 19.000292, -61.005558, 2.000000, 11.000000, 0.000000, 0.003972, 0.003926, 0.002329, 79940, 0.261000, 0.000000, 0.000000, 0.000000, 0.000000, 0.000000, 0.000000, 1, 1204, 1204, 1204, 1204
-6.940981, -11.511870, 11.149357, 0.662789, -1.193783, 0.196088, -16.997953, 18.284126, -63.460976, 1.000000, 11.000000, 0.000000, 0.003987, 0.003919, 0.002326, 79936, 0.254000, 0.000000, 0.000000, 0.000000, 0.000000, 0.000000, 0.000000, 1, 1201, 1201, 1201, 1201
-0.619741, -2.008176, 19.454845, -0.082620, -0.241597, 0.240834, -16.807951, 18.021048, -62.949432, 1.000000, 11.000000, 0.000000, 0.003981, 0.003937, 0.002323, 79936, 0.254000, 0.000000, 0.000000, 0.000000, 0.000000, 0.000000, 0.000000, 1, 1201, 1201, 1201, 1201
3.926024, -19.599611, 14.645869, 1.001361, -0.197309, 0.103236, -16.457176, 18.781059, -63.431747, 0.000000, 10.000000, 0.000000, 0.003994, 0.003935, 0.002320, 79936, 0.255000, 0.000000, 0.000000, 0.000000, 0.000000, 0.000000, 0.000000, 1, 1202, 1202, 1202, 1202
-11.023735, -13.701900, -3.999603, 0.700968, 0.631024, 0.087354, -15.653318, 19.584917, -64.337914, 0.000000, 11.000000, 0.000000, 0.004000, 0.003940, 0.002316, 79936, 0.254000, 0.000000, 0.000000, 0.000000, 0.000000, 0.000000, 0.000000, 1, 1201, 1201, 1201, 1201
-5.797810, -3.380460, 6.812366, 0.424704, 0.452498, -0.242208, -16.311020, 19.745687, -64.513306, -1.000000, 12.000000, 0.000000, 0.004001, 0.003951, 0.002313, 79936, 0.261000, 0.000000, 0.000000, 0.000000, 0.000000, 0.000000, 0.000000, 1, 1204, 1204, 1204, 1204
-17.052450, -3.262015, 4.646264, 0.206931, -0.139277, 0.114843, -17.012569, 19.599531, -64.118675, -1.000000, 12.000000, 0.000000, 0.003993, 0.003969, 0.002309, 79936, 0.261000, 0.000000, 0.000000, 0.000000, 0.000000, 0.000000, 0.000000, 1, 1204, 1204, 1204, 1204
-16.205391, 5.583652, 16.185652, -0.659124, 0.160658, -0.270919, -17.538731, 21.221865, -63.329433, 0.000000, 13.000000, 0.000000, 0.003992, 0.003979, 0.002304, 79940, 0.262000, 0.000000, 0.000000, 0.000000, 0.000000, 0.000000, 0.000000, 1, 1204, 1204, 1204, 1204
-7.058229, -1.034896, 3.420540, 0.194408, -0.301309, -0.393397, -17.611809, 20.622625, -62.233265, 0.000000, 14.000000, 0.000000, 0.003984, 0.003995, 0.002300, 79936, 0.262000, 0.000000, 0.000000, 0.000000, 0.000000, 0.000000, 0.000000, 1, 1204, 1204, 1204, 1204
-19.599611, 0.404985, 1.865804, -0.889114, -0.029627, -0.133321, -19.146448, 21.616486, -61.005558, 0.000000, 15.000000, 0.000000, 0.003976, 0.004012, 0.002296, 79936, 0.262000, 0.000000, 0.000000, 0.000000, 0.000000, 0.000000, 0.000000, 1, 1204, 1204, 1204, 1204
-1.861616, -3.536592, 19.599611, -0.621555, 0.430660, -0.156840, -19.351067, 20.213388, -60.698627, -1.000000, 14.000000, 0.000000, 0.003973, 0.004024, 0.002295, 79944, 0.263000, 0.000000, 0.000000, 0.000000, 0.000000, 0.000000, 0.000000, 1, 1205, 1205, 1205, 1205
-10.551749, 0.800399, -19.470997, -0.237932, 0.418748, 0.121868, -19.131834, 20.491085, -60.523243, -1.000000, 15.000000, 0.000000, 0.003965, 0.004042, 0.002291, 79932, 0.263000, 0.000000, 0.000000, 0.000000, 0.000000, 0.000000, 0.000000, 1, 1205, 1205, 1205, 1205
8.065607, 8.048857, -4.718646, -0.562454, 1.442864, 0.000764, -19.394913, 20.301081, -61.180943, 0.000000, 14.000000, 0.000000, 0.003973, 0.004042, 0.002287, 79940, 0.262000, 0.000000, 0.000000, 0.000000, 0.000000, 0.000000, 0.000000, 1, 1204, 1204, 1204, 1204
-7.250252, -9.372087, 4.255635, 0.371253, 1.028086, 0.197462, -18.956446, 21.075708, -62.320961, -1.000000, 15.000000, 0.000000, 0.003985, 0.004044, 0.002285, 79936, 0.264000, 0.000000, 0.000000, 0.000000, 0.000000, 0.000000, 0.000000, 1, 1205, 1205, 1205, 1205
-9.991232, 19.599611, 19.599611, -0.735482, 1.907427, 0.058185, -18.561823, 21.996492, -63.446362, 0.000000, 15.000000, 0.000000, 0.004003, 0.004038, 0.002281, 79928, 0.264000, 0.000000, 0.000000, 0.000000, 0.000000, 0.000000, 0.000000, 1, 1205, 1205, 1205, 1205
-5.128417, 19.599611, 19.599611, -0.341168, 0.564898, -0.210749, -17.757965, 21.484945, -63.387901, 1.000000, 15.000000, 0.000000, 0.004023, 0.004030, 0.002277, 79940, 0.264000, 0.000000, 0.000000, 0.000000, 0.000000, 0.000000, 0.000000, 1, 1205, 1205, 1205, 1205
-17.794226, 12.386447, 6.404389, -1.775327, 0.267712, -0.244499, -18.751827, 21.090324, -62.598656, 2.000000, 16.000000, 0.000000, 0.004023, 0.004036, 0.002273, 79936, 0.264000, 0.000000, 0.000000, 0.000000, 0.000000, 0.000000, 0.000000, 1, 1205, 1205, 1205, 1205
-1.948356, 17.052450, 12.730414, -1.589624, -0.467617, -0.246790, -19.044138, 21.908798, -62.525578, 2.000000, 16.000000, 0.000000, 0.004037, 0.004029, 0.002269, 79936, 0.259000, 0.000000, 0.000000, 0.000000, 0.000000, 0.000000, 0.000000, 1, 1203, 1203, 1203, 1203
-1.317249, 2.577070, -1.526621, -0.684780, -0.654237, 0.171959, -18.342590, 20.432623, -61.444019, 3.000000, 16.000000, 0.000000, 0.004049, 0.004025, 0.002266, 79936, 0.261000, 0.000000, 0.000000, 0.000000, 0.000000, 0.000000, 0.000000, 1, 1204, 1204, 1204, 1204
18.497715, 17.790636, -8.894720, -0.811687, 0.117133, -0.110108, -18.824905, 19.994154, -60.844784, 4.000000, 15.000000, 0.000000, 0.004055, 0.004029, 0.002262, 79940, 0.261000, 0.000000, 0.000000, 0.000000, 0.000000, 0.000000, 0.000000, 1, 1204, 1204, 1204, 1204
19.599611, -1.718047, -8.484949, 0.440434, 0.439976, 0.413708, -17.684887, 19.701841, -60.026306, 4.000000, 14.000000, 0.000000, 0.004048, 0.004047, 0.002258, 79936, 0.268000, 0.000000, 0.000000, 0.000000, 0.000000, 0.000000, 0.000000, 1, 1207, 1207, 1207, 1207
15.454643, 6.806384, 19.599611, -0.143706, 2.044108, 0.103389, -18.064894, 20.856474, -60.874016, 4.000000, 14.000000, 0.000000, 0.004043, 0.004056, 0.002253, 79936, 0.268000, 0.000000, 0.000000, 0.000000, 0.000000, 0.000000, 0.000000, 1, 1207, 1207, 1207, 1207
5.235496, 5.828916, 19.599611, 0.563065, 0.903317, 0.128129, -18.751827, 20.374159, -62.014030, 5.000000, 13.000000, 0.000000, 0.004042, 0.004067, 0.002249, 79936, 0.269000, 0.000000, 0.000000, 0.000000, 0.000000, 0.000000, 0.000000, 1, 1207, 1207, 1207, 1207
-3.960122, 16.872990, -7.281958, -0.781602, 1.291827, -0.026878, -18.854137, 20.213388, -61.385559, 5.000000, 13.000000, 0.000000, 0.004058, 0.004062, 0.002245, 79936, 0.270000, 0.000000, 0.000000, 0.000000, 0.000000, 0.000000, 0.000000, 1, 1208, 1208, 1208, 1208
7.434500, 18.007187, 6.109474, -0.356287, 0.359494, -0.207541, -19.161064, 21.075708, -61.210175, 6.000000, 13.000000, 0.000000, 0.004071, 0.004060, 0.002242, 79940, 0.256000, 0.000000, 0.000000, 0.000000, 0.000000, 0.000000, 0.000000, 1, 1202, 1202, 1202, 1202
-9.647263, 19.599611, 19.599611, -1.130864, 0.133321, 0.097738, -18.605671, 20.505699, -61.590176, 7.000000, 13.000000, 0.000000, 0.004084, 0.004052, 0.002238, 79944, 0.256000, 0.000000, 0.000000, 0.000000, 0.000000, 0.000000, 0.000000, 1, 1202, 1202, 1202, 1202
9.266206, 19.599611, 16.988443, -0.217468, -0.594525, -0.160963, -18.897984, 20.067232, -60.625546, 8.000000, 12.000000, 0.000000, 0.004093, 0.004057, 0.002234, 79940, 0.255000, 0.000000, 0.000000, 0.000000, 0.000000, 0.000000, 0.000000, 1, 1202, 1202, 1202, 1202
4.384249, 9.553943, -2.279164, -0.014203, -0.018173, 0.451124, -18.196434, 21.294943, -60.742474, 9.000000, 12.000000, 0.000000, 0.004109, 0.004054, 0.002230, 79932, 0.256000, 0.000000, 0.000000, 0.000000, 0.000000, 0.000000, 0.000000, 1, 1202, 1202, 1202, 1202
5.307878, 2.364707, 16.304096, 0.706771, -0.271835, 0.017257, -20.081848, 21.221865, -60.771706, 9.000000, 11.000000, 0.000000, 0.004102, 0.004075, 0.002226, 79936, 0.260000, 0.000000, 0.000000, 0.000000, 0.000000, 0.000000, 0.000000, 1, 1204, 1204, 1204, 1204
-5.016553, 4.167699, -2.769692, 0.461509, -0.714712, 0.556804, -18.868752, 20.549545, -60.742474, 9.000000, 12.000000, 0.000000, 0.004108, 0.004078, 0.002223, 79936, 0.259000, 0.000000, 0.000000, 0.000000, 0.000000, 0.000000, 0.000000, 1, 1203, 1203, 1203, 1203
9.173484, 10.244272, 13.324432, -0.068722, -0.004429, 0.043524, -19.672609, 22.069571, -60.771706, 10.000000, 11.000000, 0.000000, 0.004109, 0.004089, 0.002218, 79932, 0.259000, 0.000000, 0.000000, 0.000000, 0.000000, 0.000000, 0.000000, 1, 1203, 1203, 1203, 1203
6.766902, 2.743371, -4.078567, 0.733955, -0.328035, 0.259465, -18.912598, 20.418007, -60.479389, 10.000000, 10.000000, 0.000000, 0.004111, 0.004104, 0.002214, 79936, 0.261000, 0.000000, 0.000000, 0.000000, 0.000000, 0.000000, 0.000000, 1, 1204, 1204, 1204, 1204
12.675978, 13.377075, 0.744168, -0.253509, 1.107193, 0.165544, -18.751827, 21.791874, -62.350189, 11.000000, 10.000000, 0.000000, 0.004116, 0.004107, 0.002210, 79936, 0.254000, 0.000000, 0.000000, 0.000000, 0.000000, 0.000000, 0.000000, 1, 1201, 1201, 1201, 1201
4.004389, 1.039681, 14.895920, 0.174249, -0.074831, -0.025656, -19.307220, 20.534931, -60.669392, 11.000000, 9.000000, 0.000000, 0.004109, 0.004126, 0.002207, 79936, 0.253000, 0.000000, 0.000000, 0.000000, 0.000000, 0.000000, 0.000000, 1, 1201, 1201, 1201, 1201
-9.692726, 8.760722, 7.793424, 0.023060, -0.684016, 0.403935, -19.277988, 20.754166, -60.713242, 11.000000, 9.000000, 0.000000, 0.004114, 0.004128, 0.002203, 79940, 0.254000, 0.000000, 0.000000, 0.000000, 0.000000, 0.000000, 0.000000, 1, 1201, 1201, 1201, 1201
8.822935, 11.175679, -7.841280, 0.000458, -0.340252, -0.201891, -19.731073, 20.608009, -60.771706, 12.000000, 9.000000, 0.000000, 0.004125, 0.004129, 0.002199, 79936, 0.256000, 0.000000, 0.000000, 0.000000, 0.000000, 0.000000, 0.000000, 1, 1202, 1202, 1202, 1202
14.864813, -6.282356, 1.277767, 0.860251, -0.448375, 0.059254, -18.532593, 21.134171, -60.143234, 12.000000, 8.000000, 0.000000, 0.004120, 0.004146, 0.002195, 79936, 0.260000, 0.000000, 0.000000, 0.000000, 0.000000, 0.000000, 0.000000, 1, 1204, 1204, 1204, 1204
1.996212, 14.220546, -2.273780, 0.308029, 0.949590, 0.372933, -19.584917, 20.505699, -60.435547, 13.000000, 8.000000, 0.000000, 0.004139, 0.004139, 0.002191, 79936, 0.262000, 0.000000, 0.000000, 0.000000, 0.000000, 0.000000, 0.000000, 1, 1204, 1204, 1204, 1204
9.299706, 19.599611, 19.540985, -0.474184, -0.046426, -0.038485, -19.584917, 19.950306, -60.947090, 13.000000, 7.000000, 0.000000, 0.004144, 0.004142, 0.002187, 79936, 0.262000, 0.000000, 0.000000, 0.000000, 0.000000, 0.000000, 0.000000, 1, 1204, 1204, 1204, 1204
-3.062215, 5.656034, -2.781058, -0.154396, -0.727235, 0.479987, -18.839520, 20.096462, -60.874016, 14.000000, 7.000000, 0.000000, 0.004156, 0.004137, 0.002183, 79936, 0.251000, 0.000000, 0.000000, 0.000000, 0.000000, 0.000000, 0.000000, 1, 1200, 1200, 1200, 1200
13.320844, 19.599611, 7.214958, -0.973566, -0.218232, 0.093768, -19.131834, 21.382637, -60.099388, 15.000000, 7.000000, 0.000000, 0.004160, 0.004141, 0.002179, 79936, 0.241000, 0.000000, 0.000000, 0.000000, 0.000000, 0.000000, 0.000000, 1, 1196, 1196, 1196, 1196
19.599611, -5.325227, 1.956133, 0.713643, 0.562912, 0.087812, -19.657995, 20.841860, -59.383221, 15.000000, 6.000000, 0.000000, 0.004154, 0.004157, 0.002175, 79944, 0.256000, 0.000000, 0.000000, 0.000000, 0.000000, 0.000000, 0.000000, 1, 1202, 1202, 1202, 1202
-9.495318, 11.943774, 1.368096, 0.112552, 0.262061, 0.268628, -19.087986, 21.046478, -59.178604, 15.000000, 7.000000, 0.000000, 0.004161, 0.004158, 0.002172, 79944, 0.256000, 0.000000, 0.000000, 0.000000, 0.000000, 0.000000, 0.000000, 1, 1202, 1202, 1202, 1202
6.725626, 19.599611, 19.599611, -1.321760, 0.162490, -0.154243, -19.745687, 21.528793, -59.280914, 16.000000, 6.000000, 0.000000, 0.004165, 0.004158, 0.002168, 79928, 0.256000, 0.000000, 0.000000, 0.000000, 0.000000, 0.000000, 0.000000, 1, 1202, 1202, 1202, 1202
14.728421, -4.861019, 3.540779, -0.117744, 0.260534, 0.032070, -20.388775, 20.359545, -60.070156, 16.000000, 5.000000, 0.000000, 0.004161, 0.004173, 0.002164, 79940, 0.256000, 0.000000, 0.000000, 0.000000, 0.000000, 0.000000, 0.000000, 1, 1202, 1202, 1202, 1202
-7.115657, 3.527021, 19.596621, -0.780075, 1.087493, 0.101862, -19.526455, 20.724934, -60.011692, 15.000000, 6.000000, 0.000000, 0.004156, 0.004189, 0.002160, 79936, 0.256000, 0.000000, 0.000000, 0.000000, 0.000000, 0.000000, 0.000000, 1, 1202, 1202, 1202, 1202
-3.410371, 5.505885, 19.599611, -0.612240, 0.877050, -0.100945, -20.549545, 21.470331, -58.316284, 15.000000, 6.000000, 0.000000, 0.004149, 0.004184, 0.002156, 79932, 0.256000, 0.000000, 0.000000, 0.000000, 0.000000, 0.000000, 0.000000, 1, 1202, 1202, 1202, 1202
-3.832105, 0.080160, -9.921241, -0.067806, 0.346208, 0.312152, -20.125694, 21.119556, -58.681671, 16.000000, 7.000000, 0.000000, 0.004148, 0.004195, 0.002152, 79936, 0.255000, 0.000000, 0.000000, 0.000000, 0.000000, 0.000000, 0.000000, 1, 1202, 1202, 1202, 1202
9.320045, 16.510475, 19.599611, -0.730442, 1.460732, -0.008705, -20.403391, 22.186495, -58.608593, 16.000000, 7.000000, 0.000000, 0.004149, 0.004197, 0.002148, 79936, 0.250000, 0.000000, 0.000000, 0.000000, 0.000000, 0.000000, 0.000000, 1, 1200, 1200, 1200, 1200
-4.945366, 11.114662, 19.599611, -0.202960, 0.297797, 0.062156, -20.491085, 21.645718, -58.871674, 17.000000, 7.000000, 0.000000, 0.004154, 0.004191, 0.002144, 79936, 0.250000, 0.000000, 0.000000, 0.000000, 0.000000, 0.000000, 0.000000, 1, 1200, 1200, 1200, 1200
-8.466405, 0.163908, 6.870990, -1.692860, 0.613156, 0.061545, -20.505699, 22.244957, -57.263958, 17.000000, 8.000000, 0.000000, 0.004150, 0.004210, 0.002140, 79936, 0.250000, 0.000000, 0.000000, 0.000000, 0.000000, 0.000000, 0.000000, 1, 1200, 1200, 1200, 1200
6.774679, 3.425924, 2.575275, -0.709978, 1.010982, -0.158520, -20.038002, 20.710320, -57.775505, 17.000000, 7.000000, 0.000000, 0.004144, 0.004221, 0.002136, 79948, 0.251000, 0.000000, 0.000000, 0.000000, 0.000000, 0.000000, 0.000000, 1, 1200, 1200, 1200, 1200
-11.851053, 0.979263, -3.342773, 0.179289, 0.808480, -0.022297, -20.052616, 20.856474, -58.360130, 17.000000, 8.000000, 0.000000, 0.004137, 0.004242, 0.002133, 79940, 0.257000, 0.000000, 0.000000, 0.000000, 0.000000, 0.000000, 0.000000, 1, 1202, 1202, 1202, 1202
-14.584851, 19.496120, 19.599611, -1.167364, 0.653779, -0.049480, -20.447237, 22.113417, -57.994740, 18.000000, 8.000000, 0.000000, 0.004139, 0.004243, 0.002129, 79940, 0.258000, 0.000000, 0.000000, 0.000000, 0.000000, 0.000000, 0.000000, 1, 1203, 1203, 1203, 1203
-16.290337, 19.599611, 14.416756, -0.900263, -0.427911, -0.123242, -20.228003, 20.695704, -58.389359, 18.000000, 9.000000, 0.000000, 0.004141, 0.004243, 0.002125, 79920, 0.258000, 0.000000, 0.000000, 0.000000, 0.000000, 0.000000, 0.000000, 1, 1203, 1203, 1203, 1203
-2.825923, -2.341377, -15.869799, 0.261298, -0.085521, 0.081092, -21.338789, 21.207249, -57.453960, 19.000000, 10.000000, 0.000000, 0.004140, 0.004251, 0.002121, 79936, 0.237000, 0.000000, 0.000000, 0.000000, 0.000000, 0.000000, 0.000000, 1, 1194, 1194, 1194, 1194
7.639086, 11.999407, 9.462417, 0.098807, 1.434770, -0.029474, -21.558023, 22.054955, -57.570885, 19.000000, 9.000000, 0.000000, 0.004143, 0.004253, 0.002118, 79936, 0.248000, 0.000000, 0.000000, 0.000000, 0.000000, 0.000000, 0.000000, 1, 1199, 1199, 1199, 1199
-9.192028, 9.690931, 1.242473, 0.222813, 0.578642, -0.046578, -21.864952, 22.683426, -56.007015, 20.000000, 10.000000, 0.000000, 0.004148, 0.004257, 0.002114, 79940, 0.257000, 0.000000, 0.000000, 0.000000, 0.000000, 0.000000, 0.000000, 1, 1202, 1202, 1202, 1202
-12.582061, 7.194620, -9.467801, -1.886657, 0.181732, -0.038943, -22.581118, 22.931892, -57.717045, 20.000000, 10.000000, 0.000000, 0.004145, 0.004264, 0.002110, 79944, 0.251000, 0.000000, 0.000000, 0.000000, 0.000000, 0.000000, 0.000000, 1, 1200, 1200, 1200, 1200
19.599611, 1.649851, -2.303092, -0.905150, 1.072832, -0.040623, -21.967260, 22.537270, -56.182404, 20.000000, 10.000000, 0.000000, 0.004138, 0.004277, 0.002106, 79932, 0.234000, 0.000000, 0.000000, 0.000000, 0.000000, 0.000000, 0.000000, 1, 1193, 1193, 1193, 1193
4.096512, 1.923231, 16.706688, 0.352317, 0.564592, 0.467006, -21.280327, 20.944168, -55.743935, 20.000000, 9.000000, 0.000000, 0.004135, 0.004289, 0.002103, 79932, 0.224000, 0.000000, 0.000000, 0.000000, 0.000000, 0.000000, 0.000000, 1, 1189, 1189, 1189, 1189
-8.291130, 19.599611, 16.442879, -1.105819, 0.853837, -0.037568, -21.558023, 21.660334, -56.109325, 20.000000, 9.000000, 0.000000, 0.004141, 0.004284, 0.002099, 79936, 0.214000, 0.000000, 0.000000, 0.000000, 0.000000, 0.000000, 0.000000, 1, 1185, 1185, 1185, 1185
10.305887, 13.990236, -9.434301, -0.518472, 0.878272, 0.000916, -20.885706, 21.061092, -55.627014, 21.000000, 9.000000, 0.000000, 0.004149, 0.004281, 0.002096, 79932, 0.186000, 0.000000, 0.000000, 0.000000, 0.000000, 0.000000, 0.000000, 1, 1174, 1174, 1174, 1174
-9.440882, 0.108873, 3.077170, -0.065668, 0.096211, 0.083383, -20.871090, 22.069571, -55.670856, 21.000000, 10.000000, 0.000000, 0.004142, 0.004298, 0.002092, 79936, 0.159000, 0.000000, 0.000000, 0.000000, 0.000000, 0.000000, 0.000000, 1, 1163, 1163, 1163, 1163
-12.997812, -19.599611, 14.014164, 0.821308, -0.132710, 0.186925, -20.827244, 22.741888, -54.253143, 20.000000, 10.000000, 0.000000, 0.004153, 0.004295, 0.002089, 79944, 0.144000, 0.000000, 0.000000, 0.000000, 0.000000, 0.000000, 0.000000, 1, 1157, 1157, 1157, 1157
-19.599611, 1.835295, -3.629314, 0.765109, -0.835053, 0.410654, -21.265713, 22.244957, -53.025429, 21.000000, 11.000000, 0.000000, 0.004147, 0.004306, 0.002085, 79936, 0.127000, 0.000000, 0.000000, 0.000000, 0.000000, 0.000000, 0.000000, 1, 1150, 1150, 1150, 1150
-19.184456, 4.872385, 5.207978, -0.627206, 1.723862, 0.102167, -20.885706, 25.781935, -54.662376, 21.000000, 12.000000, 0.000000, 0.004140, 0.004327, 0.002082, 79940, 0.066000, 0.000000, 0.000000, 0.000000, 0.000000, 0.000000, 0.000000, 1, 1126, 1126, 1126, 1126
-3.195615, 10.509278, -3.123830, 0.607200, 1.419193, 0.031612, -18.108740, 24.305758, -57.059341, 21.000000, 12.000000, 0.000000, 0.004156, 0.004322, 0.002079, 79936, 0.000000, 0.000000, 0.000000, 0.000000, 0.000000, 0.000000, 0.000000, 1, 1100, 1100, 1100, 1100
3.483950, 17.149361, -0.196810, -0.197615, 1.483333, -0.164170, -16.325636, 23.282667, -58.667057, 22.000000, 12.000000, 0.000000, 0.004170, 0.004315, 0.002077, 79904, 0.000000, 0.000000, 0.000000, 0.000000, 0.000000, 0.000000, 0.000000, 1, 1100, 1100, 1100, 1100
